Folder: iongate/Gamry (part 4)

File: CV_smallGrid_newBuffer_2.DTA
EXPLAIN
TAG	CV
TITLE	LABEL	Cyclic Voltammetry	Test &Identifier
DATE	LABEL	5-12-2022	Date
TIME	LABEL	13:06:58	Time
NOTES	NOTES	1	&Notes...

PSTAT	PSTAT	REF3000-20110	Potentiostat
VINIT	POTEN	0.00000E+000	F	Initial &E (V)
VLIMIT1	POTEN	5.00000E-001	F	Scan Limit &1 (V)
VLIMIT2	POTEN	-5.00000E-001	F	Scan Limit &2 (V)
VFINAL	POTEN	0.00000E+000	F	Final &E (V)
SCANRATE	QUANT	9.99998E+001	&Scan Rate (mV/s)
STEPSIZE	QUANT	2.00000E+000	St&ep Size (mV)
CYCLES	IQUANT	3	C&ycles (#)
IMODE	SELECTOR	0	I/E Range &Mode
IRANGE	QUANT	3.00000E-001	&Max Current (mA)
AREA	QUANT	1.00000E+000	Electrode &Area (cm^2)
ELECTRODETYPE	SELECTOR	0	Electrode Type
STRIPPING	TOGGLE	F	Used for Stripping
CONDIT	TWOPARAM	F	1.50000E+001	0.00000E+000	Conditionin&g	Time(s)	E(V)
DELAY	TWOPARAM	F	3.00000E+001	0.00000E+000	Init. De&lay	Time(s)	Stab.(mV/s)
EQDELAY	QUANT	0.00000E+000	Equil. &Time (s)
IRCOMP	SELECTOR	0	IRCom&p
PFCOR	QUANT	5.00000E+001	PF Corr. (ohm)
SAMPLINGMODE	SELECTOR	1	Sampling &Mode
EOC	QUANT	0	Open Circuit (V)
PSTATMODEL	IQUANT	5	Pstat Model
PSTATSECTION	LABEL	REF3000-20110	Pstat Section
PSTATSERIALNO	LABEL	20110	Pstat Serial Number
CTRLMODE	IQUANT	1	Control Mode
ELECTROMETER	IQUANT	0	RE=0 or CS=1
IESTAB	IQUANT	2	I/E Stability
CASPEED	IQUANT	4	Control Amp Speed
CONVENTION	IQUANT	1	Current Convention
ICHRANGE	IQUANT	2	Ich Range
ICHRANGEMODE	TOGGLE	F	Ich Auto Range
ICHOFFSETENABLE	TOGGLE	F	Ich Offset Enable
ICHOFFSET	QUANT	0	Ich Offset (V)
ICHFILTER	IQUANT	2	Ich Filter
VCHRANGE	IQUANT	2	Vch Range
VCHRANGEMODE	TOGGLE	F	Vch Auto Range
VCHOFFSETENABLE	TOGGLE	F	Vch Offset Enable
VCHOFFSET	QUANT	0	Vch Offset (V)
VCHFILTER	IQUANT	2	Vch Filter
ACHRANGE	IQUANT	2	Ach Range
ACHOFFSETENABLE	TOGGLE	F	Ach Offset Enable
ACHOFFSET	QUANT	0	Ach Offset (V)
ACHFILTER	IQUANT	1	Ach Filter
IERANGELOWERLIMIT	IQUANT	2	I/E Range Lower Limit
IERANGEMODE	TOGGLE	T	I/E AutoRange
IERANGE	IQUANT	9	I/E Range
POSFEEDENABLE	TOGGLE	F	Positive Feedback IR Comp
POSFEEDRESISTANCE	QUANT	0	Positive Feedback Resistance (ohm)
ACHSELECT	IQUANT	4	Ach Select
SENSECABLEID	IQUANT	14	Sense Cable ID
PWRCABLEID	IQUANT	7	Power Cable ID
DCCALDATE	LABEL	8/9/2022	DC Calibration Date
ACCALDATE	LABEL	8/9/2022	AC Calibration Date
THERMOSELECT	IQUANT	1	Thermo Select
FRAMEWORKVERSION	LABEL	7.9.0	Framework Version
INSTRUMENTVERSION	LABEL	4.60	Instrument Version
COMPLIANCEVOLTAGE	IQUANT	0	Compliance Voltage
CURVE1	TABLE
	Pt	T	Vf	Im	Vu	Sig	Ach	IERange	Over	Temp
	#	s	V vs. Ref.	A	V	V	V	#	bits	deg C
	0	0.02	2.62098E-003	-7.60690E-008	0.00000E+000	0.00000E+000	8.37576E-004	9	...........	-327.63
	8	0.18	1.88218E-002	-1.08579E-008	0.00000E+000	1.60000E-002	8.38410E-004	7	...h.......	-327.63
	16	0.34	3.51201E-002	-1.12412E-008	0.00000E+000	3.20000E-002	8.38410E-004	7	...........	-327.63
	24	0.5	5.09718E-002	-1.13204E-008	0.00000E+000	4.80000E-002	8.42576E-004	7	...h.......	-327.63
	32	0.66	6.68159E-002	-1.13412E-008	0.00000E+000	6.40000E-002	8.33410E-004	7	...........	-327.63
	40	0.82	8.25742E-002	-1.15037E-008	0.00000E+000	8.00000E-002	8.32576E-004	7	...........	-327.63
	48	0.98	9.89755E-002	-1.14495E-008	0.00000E+000	9.60000E-002	8.35076E-004	7	...........	-327.63
	56	1.14	1.14585E-001	-1.09662E-008	0.00000E+000	1.12000E-001	8.34243E-004	7	...........	-327.63
	64	1.3	1.78460E-001	-1.30329E-008	0.00000E+000	1.28000E-001	8.21743E-004	7	..ch.......	-327.63
	72	1.46	1.44851E-001	-1.13079E-008	0.00000E+000	1.44000E-001	8.30910E-004	7	...........	-327.63
	80	1.62	1.61963E-001	-1.25121E-008	0.00000E+000	1.60000E-001	8.13410E-004	7	...........	-327.63
	88	1.78	1.79011E-001	-1.21912E-008	0.00000E+000	1.76000E-001	8.32576E-004	7	...........	-327.63
	96	1.94	1.92783E-001	-1.14120E-008	0.00000E+000	1.92000E-001	8.27576E-004	7	...........	-327.63
	104	2.1	2.08894E-001	-1.19079E-008	0.00000E+000	2.08000E-001	8.31743E-004	7	...........	-327.63
	112	2.26	2.29352E-001	-1.25913E-008	0.00000E+000	2.24000E-001	8.44243E-004	7	...........	-327.63
	120	2.42	2.44276E-001	-1.23412E-008	0.00000E+000	2.40000E-001	8.35076E-004	7	...........	-327.63
	128	2.58	2.60135E-001	-1.24371E-008	0.00000E+000	2.56000E-001	8.31743E-004	7	...........	-327.63
	136	2.74	2.76794E-001	-1.25287E-008	0.00000E+000	2.72000E-001	8.34243E-004	7	...........	-327.63
	144	2.9	2.93278E-001	-1.26121E-008	0.00000E+000	2.88000E-001	8.33410E-004	7	...........	-327.63
	152	3.06	3.07713E-001	-1.25371E-008	0.00000E+000	3.04000E-001	8.37576E-004	7	...........	-327.63
	160	3.22	3.24624E-001	-1.21662E-008	0.00000E+000	3.20000E-001	8.33410E-004	7	...h.......	-327.63
	168	3.38	3.39824E-001	-1.18662E-008	0.00000E+000	3.36000E-001	8.32576E-004	7	...........	-327.63
	176	3.54	3.55826E-001	-1.18204E-008	0.00000E+000	3.52000E-001	8.40076E-004	7	...........	-327.63
	184	3.7	3.70886E-001	-1.11370E-008	0.00000E+000	3.68000E-001	8.30910E-004	7	...........	-327.63
	192	3.86	3.84689E-001	-1.08537E-008	0.00000E+000	3.84000E-001	8.33410E-004	7	...........	-327.63
	200	4.02	4.00890E-001	-1.09162E-008	0.00000E+000	4.00000E-001	8.35910E-004	7	...........	-327.63
	208	4.18	4.19085E-001	-1.06495E-008	0.00000E+000	4.16000E-001	8.40910E-004	7	...........	-327.63
	216	4.34	4.34746E-001	-1.02828E-008	0.00000E+000	4.32000E-001	8.37576E-004	7	...........	-327.63
	224	4.5	4.49016E-001	-9.99532E-009	0.00000E+000	4.48000E-001	8.26743E-004	7	...........	-327.63
	232	4.66	4.67322E-001	-9.72031E-009	0.00000E+000	4.64000E-001	8.26743E-004	7	...........	-327.63
	240	4.82	4.82160E-001	-9.25779E-009	0.00000E+000	4.80000E-001	8.39243E-004	7	...........	-327.63
	248	4.98	4.99937E-001	-9.35363E-009	0.00000E+000	4.96000E-001	8.31743E-004	7	...........	-327.63
	256	5.14	4.89807E-001	-8.60777E-009	0.00000E+000	4.88000E-001	8.25076E-004	7	...........	-327.63
	264	5.3	4.74908E-001	-7.80357E-009	0.00000E+000	4.72000E-001	8.45076E-004	7	...........	-327.63
	272	5.46	4.58457E-001	-7.11188E-009	0.00000E+000	4.56000E-001	8.23410E-004	7	...........	-327.63
	280	5.62	4.42311E-001	-6.84937E-009	0.00000E+000	4.40000E-001	8.32576E-004	7	...........	-327.63
	288	5.78	4.26905E-001	-6.23268E-009	0.00000E+000	4.24000E-001	8.40076E-004	7	...........	-327.63
	296	5.94	4.10670E-001	-5.44515E-009	0.00000E+000	4.08000E-001	8.39243E-004	7	...........	-327.63
	304	6.1	3.94863E-001	-5.06597E-009	0.00000E+000	3.92000E-001	8.32576E-004	7	...........	-327.63
	312	6.26	3.78801E-001	-4.84096E-009	0.00000E+000	3.76000E-001	8.36743E-004	7	...........	-327.63
	320	6.42	3.62789E-001	-4.19927E-009	0.00000E+000	3.60000E-001	8.26743E-004	7	...........	-327.63
	328	6.58	3.47638E-001	-3.79509E-009	0.00000E+000	3.44000E-001	8.31743E-004	7	...........	-327.63
	336	6.74	3.30842E-001	-2.81589E-009	0.00000E+000	3.28000E-001	8.35076E-004	7	...........	-327.63
	344	6.9	3.14760E-001	-2.25753E-009	0.00000E+000	3.12000E-001	8.36743E-004	7	...........	-327.63
	352	7.06	2.99400E-001	-2.05336E-009	0.00000E+000	2.96000E-001	8.35076E-004	7	...........	-327.63
	360	7.22	2.82502E-001	-9.15816E-010	0.00000E+000	2.80000E-001	8.25910E-004	7	...........	-327.63
	368	7.38	2.66241E-001	-1.28286E-010	0.00000E+000	2.64000E-001	8.20076E-004	7	...........	-327.63
	376	7.54	2.49987E-001	2.05059E-010	0.00000E+000	2.48000E-001	8.35076E-004	7	...........	-327.63
	384	7.7	2.34375E-001	1.07593E-009	0.00000E+000	2.32000E-001	8.25910E-004	7	...........	-327.63
	392	7.86	2.18299E-001	2.08430E-009	0.00000E+000	2.16000E-001	8.25910E-004	7	...........	-327.63
[...]
	2895	57.92	-2.06005E-001	-6.87020E-009	0.00000E+000	-2.10000E-001	4.31743E-004	7	...........	-327.63
	2898	57.98	-2.00014E-001	-6.72437E-009	0.00000E+000	-2.04000E-001	4.29243E-004	7	...........	-327.63
	2901	58.04	-1.94030E-001	-6.59936E-009	0.00000E+000	-1.98000E-001	4.33410E-004	7	...........	-327.63
	2904	58.1	-1.88273E-001	-6.39935E-009	0.00000E+000	-1.92000E-001	4.22576E-004	7	...........	-327.63
	2907	58.16	-1.82044E-001	-6.53269E-009	0.00000E+000	-1.86000E-001	4.48410E-004	7	...........	-327.63
	2910	58.22	-1.76076E-001	-6.08268E-009	0.00000E+000	-1.80000E-001	4.30910E-004	7	...........	-327.63
	2913	58.28	-1.70116E-001	-5.84100E-009	0.00000E+000	-1.74000E-001	4.35076E-004	7	...........	-327.63
	2916	58.34	-1.64413E-001	-5.88267E-009	0.00000E+000	-1.68000E-001	4.26743E-004	7	...........	-327.63
	2919	58.4	-1.58211E-001	-5.97017E-009	0.00000E+000	-1.62000E-001	4.33410E-004	7	...........	-327.63
	2922	58.46	-1.52334E-001	-5.66599E-009	0.00000E+000	-1.56000E-001	4.27576E-004	7	...........	-327.63
	2925	58.52	-1.46348E-001	-5.43682E-009	0.00000E+000	-1.50000E-001	4.20076E-004	7	...........	-327.63
	2928	58.58	-1.40427E-001	-5.54516E-009	0.00000E+000	-1.44000E-001	4.32576E-004	7	...........	-327.63
	2931	58.64	-1.34524E-001	-5.39932E-009	0.00000E+000	-1.38000E-001	4.36743E-004	7	...........	-327.63
	2934	58.7	-1.28294E-001	-5.32848E-009	0.00000E+000	-1.32000E-001	4.45910E-004	7	...........	-327.63
	2937	58.76	-1.22515E-001	-5.11597E-009	0.00000E+000	-1.26000E-001	4.17576E-004	7	...........	-327.63
	2940	58.82	-1.16568E-001	-5.15347E-009	0.00000E+000	-1.20000E-001	4.28410E-004	7	...........	-327.63
	2943	58.88	-1.10426E-001	-4.88263E-009	0.00000E+000	-1.14000E-001	4.32576E-004	7	...........	-327.63
	2946	58.94	-1.04384E-001	-4.98680E-009	0.00000E+000	-1.08000E-001	4.24243E-004	7	...........	-327.63
	2949	59	-9.73632E-002	-5.11597E-009	0.00000E+000	-1.02000E-001	4.15076E-004	7	...........	-327.63
	2952	59.06	-9.27824E-002	-4.76596E-009	0.00000E+000	-9.60000E-002	4.05910E-004	7	...........	-327.63
	2955	59.12	-8.64241E-002	-5.02430E-009	0.00000E+000	-9.00000E-002	4.27576E-004	7	...........	-327.63
	2958	59.18	-8.03816E-002	-4.92013E-009	0.00000E+000	-8.40000E-002	4.27576E-004	7	...........	-327.63
	2961	59.24	-7.52028E-002	-4.63262E-009	0.00000E+000	-7.80000E-002	4.20910E-004	7	...........	-327.63
	2964	59.3	-6.82737E-002	-4.88680E-009	0.00000E+000	-7.20000E-002	4.50910E-004	7	...........	-327.63
	2967	59.36	-6.24895E-002	-4.91180E-009	0.00000E+000	-6.60000E-002	4.35910E-004	7	...........	-327.63
	2970	59.42	-5.68453E-002	-4.30761E-009	0.00000E+000	-6.00000E-002	4.51743E-004	7	...........	-327.63
	2973	59.48	-5.08699E-002	-4.19094E-009	0.00000E+000	-5.40000E-002	4.35076E-004	7	...........	-327.63
	2976	59.54	-4.49345E-002	-4.08260E-009	0.00000E+000	-4.80000E-002	4.20910E-004	7	...........	-327.63
	2979	59.6	-3.90087E-002	-3.93259E-009	0.00000E+000	-4.20000E-002	4.40076E-004	7	...........	-327.63
	2982	59.66	-3.30162E-002	-3.83676E-009	0.00000E+000	-3.60000E-002	4.29243E-004	7	...........	-327.63
	2985	59.72	-2.69337E-002	-3.71175E-009	0.00000E+000	-3.00000E-002	4.23410E-004	7	...........	-327.63
	2988	59.78	-2.05982E-002	-3.65342E-009	0.00000E+000	-2.40000E-002	4.44243E-004	7	...........	-327.63
	2991	59.84	-1.46124E-002	-3.42424E-009	0.00000E+000	-1.80000E-002	4.21743E-004	7	...........	-327.63
	2994	59.9	-8.55991E-003	-3.35341E-009	0.00000E+000	-1.20000E-002	4.32576E-004	7	...........	-327.63
	2997	59.96	-2.75199E-003	-3.29924E-009	0.00000E+000	-6.00000E-003	4.23410E-004	7	...........	-327.63
	3000	60.02	2.82926E-003	-2.99089E-009	0.00000E+000	0.00000E+000	4.35076E-004	7	...........	-327.63

File: CV_smallGrid_newBuffer_3.DTA
EXPLAIN
TAG	CV
TITLE	LABEL	Cyclic Voltammetry	Test &Identifier
DATE	LABEL	5-12-2022	Date
TIME	LABEL	13:11:56	Time
NOTES	NOTES	1	&Notes...

PSTAT	PSTAT	REF3000-20110	Potentiostat
VINIT	POTEN	0.00000E+000	F	Initial &E (V)
VLIMIT1	POTEN	5.00000E-001	F	Scan Limit &1 (V)
VLIMIT2	POTEN	-5.00000E-001	F	Scan Limit &2 (V)
VFINAL	POTEN	0.00000E+000	F	Final &E (V)
SCANRATE	QUANT	9.99998E+001	&Scan Rate (mV/s)
STEPSIZE	QUANT	2.00000E+000	St&ep Size (mV)
CYCLES	IQUANT	3	C&ycles (#)
IMODE	SELECTOR	0	I/E Range &Mode
IRANGE	QUANT	3.00000E-001	&Max Current (mA)
AREA	QUANT	1.00000E+000	Electrode &Area (cm^2)
ELECTRODETYPE	SELECTOR	0	Electrode Type
STRIPPING	TOGGLE	F	Used for Stripping
CONDIT	TWOPARAM	F	1.50000E+001	0.00000E+000	Conditionin&g	Time(s)	E(V)
DELAY	TWOPARAM	F	3.00000E+001	0.00000E+000	Init. De&lay	Time(s)	Stab.(mV/s)
EQDELAY	QUANT	0.00000E+000	Equil. &Time (s)
IRCOMP	SELECTOR	0	IRCom&p
PFCOR	QUANT	5.00000E+001	PF Corr. (ohm)
SAMPLINGMODE	SELECTOR	1	Sampling &Mode
EOC	QUANT	0	Open Circuit (V)
PSTATMODEL	IQUANT	5	Pstat Model
PSTATSECTION	LABEL	REF3000-20110	Pstat Section
PSTATSERIALNO	LABEL	20110	Pstat Serial Number
CTRLMODE	IQUANT	1	Control Mode
ELECTROMETER	IQUANT	0	RE=0 or CS=1
IESTAB	IQUANT	2	I/E Stability
CASPEED	IQUANT	4	Control Amp Speed
CONVENTION	IQUANT	1	Current Convention
ICHRANGE	IQUANT	2	Ich Range
ICHRANGEMODE	TOGGLE	F	Ich Auto Range
ICHOFFSETENABLE	TOGGLE	F	Ich Offset Enable
ICHOFFSET	QUANT	0	Ich Offset (V)
ICHFILTER	IQUANT	2	Ich Filter
VCHRANGE	IQUANT	2	Vch Range
VCHRANGEMODE	TOGGLE	F	Vch Auto Range
VCHOFFSETENABLE	TOGGLE	F	Vch Offset Enable
VCHOFFSET	QUANT	0	Vch Offset (V)
VCHFILTER	IQUANT	2	Vch Filter
ACHRANGE	IQUANT	2	Ach Range
ACHOFFSETENABLE	TOGGLE	F	Ach Offset Enable
ACHOFFSET	QUANT	0	Ach Offset (V)
ACHFILTER	IQUANT	1	Ach Filter
IERANGELOWERLIMIT	IQUANT	2	I/E Range Lower Limit
IERANGEMODE	TOGGLE	T	I/E AutoRange
IERANGE	IQUANT	9	I/E Range
POSFEEDENABLE	TOGGLE	F	Positive Feedback IR Comp
POSFEEDRESISTANCE	QUANT	0	Positive Feedback Resistance (ohm)
ACHSELECT	IQUANT	4	Ach Select
SENSECABLEID	IQUANT	14	Sense Cable ID
PWRCABLEID	IQUANT	7	Power Cable ID
DCCALDATE	LABEL	8/9/2022	DC Calibration Date
ACCALDATE	LABEL	8/9/2022	AC Calibration Date
THERMOSELECT	IQUANT	1	Thermo Select
FRAMEWORKVERSION	LABEL	7.9.0	Framework Version
INSTRUMENTVERSION	LABEL	4.60	Instrument Version
COMPLIANCEVOLTAGE	IQUANT	0	Compliance Voltage
CURVE1	TABLE
	Pt	T	Vf	Im	Vu	Sig	Ach	IERange	Over	Temp
	#	s	V vs. Ref.	A	V	V	V	#	bits	deg C
	0	0.02	-4.74436E-004	-7.14709E-008	0.00000E+000	0.00000E+000	6.96743E-004	9	...........	-327.63
	8	0.18	1.55847E-002	5.25941E-009	0.00000E+000	1.60000E-002	6.85910E-004	7	...........	-327.63
	16	0.34	3.15772E-002	5.15108E-009	0.00000E+000	3.20000E-002	6.80910E-004	7	...........	-327.63
	24	0.5	4.75522E-002	5.13441E-009	0.00000E+000	4.80000E-002	6.85076E-004	7	...........	-327.63
	32	0.66	6.35318E-002	5.15941E-009	0.00000E+000	6.40000E-002	6.87576E-004	7	...........	-327.63
	40	0.82	7.95176E-002	5.25108E-009	0.00000E+000	8.00000E-002	6.81743E-004	7	...........	-327.63
	48	0.98	9.55042E-002	5.10524E-009	0.00000E+000	9.60000E-002	6.83410E-004	7	...........	-327.63
	56	1.14	1.11484E-001	5.11358E-009	0.00000E+000	1.12000E-001	6.90910E-004	7	...........	-327.63
	64	1.3	1.27478E-001	5.40109E-009	0.00000E+000	1.28000E-001	6.91743E-004	7	...........	-327.63
	72	1.46	1.43454E-001	5.09274E-009	0.00000E+000	1.44000E-001	6.83410E-004	7	...........	-327.63
	80	1.62	1.59413E-001	5.49692E-009	0.00000E+000	1.60000E-001	6.77576E-004	7	...........	-327.63
	88	1.78	1.75412E-001	5.40109E-009	0.00000E+000	1.76000E-001	6.90076E-004	7	...........	-327.63
	96	1.94	1.91357E-001	5.20525E-009	0.00000E+000	1.92000E-001	6.86743E-004	7	...........	-327.63
	104	2.1	2.07350E-001	5.18441E-009	0.00000E+000	2.08000E-001	6.78410E-004	7	...........	-327.63
	112	2.26	2.23325E-001	4.98440E-009	0.00000E+000	2.24000E-001	6.84243E-004	7	...........	-327.63
	120	2.42	2.39300E-001	5.13858E-009	0.00000E+000	2.40000E-001	6.77576E-004	7	...........	-327.63
	128	2.58	2.55290E-001	5.19691E-009	0.00000E+000	2.56000E-001	6.89243E-004	7	...........	-327.63
	136	2.74	2.71260E-001	4.90940E-009	0.00000E+000	2.72000E-001	6.82576E-004	7	...........	-327.63
	144	2.9	2.87223E-001	5.06357E-009	0.00000E+000	2.88000E-001	6.79243E-004	7	...........	-327.63
	152	3.06	3.03220E-001	4.97607E-009	0.00000E+000	3.04000E-001	6.88410E-004	7	...........	-327.63
	160	3.22	3.19190E-001	4.90107E-009	0.00000E+000	3.20000E-001	6.93410E-004	7	...........	-327.63
	168	3.38	3.35165E-001	5.15941E-009	0.00000E+000	3.36000E-001	6.79243E-004	7	...........	-327.63
	176	3.54	3.51134E-001	5.23441E-009	0.00000E+000	3.52000E-001	6.92576E-004	7	...........	-327.63
	184	3.7	3.67103E-001	5.27191E-009	0.00000E+000	3.68000E-001	6.85076E-004	7	...........	-327.63
	192	3.86	3.83078E-001	5.23441E-009	0.00000E+000	3.84000E-001	6.77576E-004	7	...........	-327.63
	200	4.02	3.99054E-001	4.88440E-009	0.00000E+000	4.00000E-001	6.91743E-004	7	...........	-327.63
	208	4.18	4.15005E-001	5.15941E-009	0.00000E+000	4.16000E-001	6.81743E-004	7	...........	-327.63
	216	4.34	4.30987E-001	5.21358E-009	0.00000E+000	4.32000E-001	6.88410E-004	7	...........	-327.63
	224	4.5	4.46958E-001	5.34275E-009	0.00000E+000	4.48000E-001	6.84243E-004	7	...........	-327.63
	232	4.66	4.62916E-001	5.33025E-009	0.00000E+000	4.64000E-001	6.87576E-004	7	...........	-327.63
	240	4.82	4.78910E-001	5.52192E-009	0.00000E+000	4.80000E-001	6.75910E-004	7	...........	-327.63
	248	4.98	4.94879E-001	5.36775E-009	0.00000E+000	4.96000E-001	6.88410E-004	7	...........	-327.63
	256	5.14	4.86885E-001	5.50942E-009	0.00000E+000	4.88000E-001	6.73410E-004	7	...........	-327.63
	264	5.3	4.70909E-001	5.46776E-009	0.00000E+000	4.72000E-001	6.94243E-004	7	...........	-327.63
	272	5.46	4.54936E-001	5.86777E-009	0.00000E+000	4.56000E-001	6.85076E-004	7	...........	-327.63
	280	5.62	4.38945E-001	5.81777E-009	0.00000E+000	4.40000E-001	6.77576E-004	7	...........	-327.63
	288	5.78	4.22968E-001	5.84694E-009	0.00000E+000	4.24000E-001	6.88410E-004	7	...........	-327.63
	296	5.94	4.07011E-001	5.94694E-009	0.00000E+000	4.08000E-001	6.92576E-004	7	...........	-327.63
	304	6.1	3.91025E-001	5.86777E-009	0.00000E+000	3.92000E-001	6.89243E-004	7	...........	-327.63
	312	6.26	3.75041E-001	5.69693E-009	0.00000E+000	3.76000E-001	6.87576E-004	7	...........	-327.63
	320	6.42	3.59073E-001	5.58859E-009	0.00000E+000	3.60000E-001	6.86743E-004	7	...........	-327.63
	328	6.58	3.43099E-001	5.34692E-009	0.00000E+000	3.44000E-001	6.83410E-004	7	...........	-327.63
	336	6.74	3.27120E-001	5.75110E-009	0.00000E+000	3.28000E-001	6.89243E-004	7	...........	-327.63
	344	6.9	3.11134E-001	5.70110E-009	0.00000E+000	3.12000E-001	6.88410E-004	7	...........	-327.63
	352	7.06	2.95181E-001	5.78027E-009	0.00000E+000	2.96000E-001	6.85076E-004	7	...........	-327.63
	360	7.22	2.79209E-001	6.00944E-009	0.00000E+000	2.80000E-001	6.77576E-004	7	...........	-327.63
	368	7.38	2.63228E-001	5.81777E-009	0.00000E+000	2.64000E-001	6.88410E-004	7	...........	-327.63
	376	7.54	2.47263E-001	5.88444E-009	0.00000E+000	2.48000E-001	6.90910E-004	7	...........	-327.63
	384	7.7	2.31272E-001	5.78443E-009	0.00000E+000	2.32000E-001	6.74243E-004	7	...........	-327.63
	392	7.86	2.15298E-001	5.80110E-009	0.00000E+000	2.16000E-001	7.01743E-004	7	...........	-327.63
[...]
	2895	57.92	-2.07864E-001	1.00679E-008	0.00000E+000	-2.10000E-001	4.47576E-004	7	...........	-327.63
	2898	57.98	-2.01890E-001	1.03096E-008	0.00000E+000	-2.04000E-001	4.61743E-004	7	...........	-327.63
	2901	58.04	-1.95899E-001	1.04221E-008	0.00000E+000	-1.98000E-001	4.49243E-004	7	...........	-327.63
	2904	58.1	-1.89922E-001	1.03554E-008	0.00000E+000	-1.92000E-001	4.58410E-004	7	...........	-327.63
	2907	58.16	-1.83924E-001	1.03429E-008	0.00000E+000	-1.86000E-001	4.44243E-004	7	...........	-327.63
	2910	58.22	-1.77947E-001	1.02013E-008	0.00000E+000	-1.80000E-001	4.49243E-004	7	...........	-327.63
	2913	58.28	-1.71946E-001	1.01179E-008	0.00000E+000	-1.74000E-001	4.55076E-004	7	...........	-327.63
	2916	58.34	-1.65947E-001	1.01388E-008	0.00000E+000	-1.68000E-001	4.47576E-004	7	...........	-327.63
	2919	58.4	-1.59958E-001	1.02929E-008	0.00000E+000	-1.62000E-001	4.27576E-004	7	...........	-327.63
	2922	58.46	-1.53987E-001	1.04971E-008	0.00000E+000	-1.56000E-001	4.35910E-004	7	...........	-327.63
	2925	58.52	-1.48002E-001	1.03638E-008	0.00000E+000	-1.50000E-001	4.26743E-004	7	...........	-327.63
	2928	58.58	-1.42010E-001	1.03971E-008	0.00000E+000	-1.44000E-001	4.42576E-004	7	...........	-327.63
	2931	58.64	-1.36007E-001	1.04388E-008	0.00000E+000	-1.38000E-001	4.54243E-004	7	...........	-327.63
	2934	58.7	-1.30040E-001	1.06263E-008	0.00000E+000	-1.32000E-001	4.45910E-004	7	...........	-327.63
	2937	58.76	-1.24040E-001	1.04679E-008	0.00000E+000	-1.26000E-001	4.55910E-004	7	...........	-327.63
	2940	58.82	-1.18052E-001	1.04763E-008	0.00000E+000	-1.20000E-001	4.45076E-004	7	...........	-327.63
	2943	58.88	-1.12057E-001	1.04388E-008	0.00000E+000	-1.14000E-001	4.50910E-004	7	...........	-327.63
	2946	58.94	-1.06073E-001	1.05054E-008	0.00000E+000	-1.08000E-001	4.47576E-004	7	...........	-327.63
	2949	59	-1.00098E-001	1.06138E-008	0.00000E+000	-1.02000E-001	4.40076E-004	7	...........	-327.63
	2952	59.06	-9.41137E-002	1.04971E-008	0.00000E+000	-9.60000E-002	4.46743E-004	7	...........	-327.63
	2955	59.12	-8.81266E-002	1.05638E-008	0.00000E+000	-9.00000E-002	4.67576E-004	7	...........	-327.63
	2958	59.18	-8.21307E-002	1.06846E-008	0.00000E+000	-8.40000E-002	4.46743E-004	7	...........	-327.63
	2961	59.24	-7.61474E-002	1.06554E-008	0.00000E+000	-7.80000E-002	4.77576E-004	7	...........	-327.63
	2964	59.3	-7.01516E-002	1.09430E-008	0.00000E+000	-7.20000E-002	4.38410E-004	7	...........	-327.63
	2967	59.36	-6.41616E-002	1.07846E-008	0.00000E+000	-6.60000E-002	4.51743E-004	7	...........	-327.63
	2970	59.42	-5.81799E-002	1.08638E-008	0.00000E+000	-6.00000E-002	4.61743E-004	7	...........	-327.63
	2973	59.48	-5.21745E-002	1.08680E-008	0.00000E+000	-5.40000E-002	4.60910E-004	7	...........	-327.63
	2976	59.54	-4.61966E-002	1.09221E-008	0.00000E+000	-4.80000E-002	4.46743E-004	7	...........	-327.63
	2979	59.6	-4.02107E-002	1.09888E-008	0.00000E+000	-4.20000E-002	4.48410E-004	7	...........	-327.63
	2982	59.66	-3.42270E-002	1.09013E-008	0.00000E+000	-3.60000E-002	4.63410E-004	7	...........	-327.63
	2985	59.72	-2.82412E-002	1.10013E-008	0.00000E+000	-3.00000E-002	4.55076E-004	7	...........	-327.63
	2988	59.78	-2.22720E-002	1.10763E-008	0.00000E+000	-2.40000E-002	4.55910E-004	7	...........	-327.63
	2991	59.84	-1.62807E-002	1.11096E-008	0.00000E+000	-1.80000E-002	4.68410E-004	7	...........	-327.63
	2994	59.9	-1.02991E-002	1.10721E-008	0.00000E+000	-1.20000E-002	4.43410E-004	7	...........	-327.63
	2997	59.96	-4.30991E-003	1.13930E-008	0.00000E+000	-6.00000E-003	4.59243E-004	7	...........	-327.63
	3000	60.02	1.67592E-003	1.12763E-008	0.00000E+000	0.00000E+000	4.57576E-004	7	...........	-327.63