Folder: iongate/Gamry

Note: README.md
# The IonGate Project Repository
## NANOMADE - Technical University of Denmark

File: CV_Beaker_AgWires.DTA
EXPLAIN
TAG	CV
TITLE	LABEL	Cyclic Voltammetry	Test &Identifier
DATE	LABEL	6-12-2022	Date
TIME	LABEL	9:53:09	Time
NOTES	NOTES	1	&Notes...

PSTAT	PSTAT	REF3000-20110	Potentiostat
VINIT	POTEN	-5.00000E-001	F	Initial &E (V)
VLIMIT1	POTEN	5.00000E-001	F	Scan Limit &1 (V)
VLIMIT2	POTEN	-5.00000E-001	F	Scan Limit &2 (V)
VFINAL	POTEN	0.00000E+000	F	Final &E (V)
SCANRATE	QUANT	9.99998E+001	&Scan Rate (mV/s)
STEPSIZE	QUANT	2.00000E+000	St&ep Size (mV)
CYCLES	IQUANT	3	C&ycles (#)
IMODE	SELECTOR	0	I/E Range &Mode
IRANGE	QUANT	3.00000E-001	&Max Current (mA)
AREA	QUANT	1.00000E+000	Electrode &Area (cm^2)
ELECTRODETYPE	SELECTOR	0	Electrode Type
STRIPPING	TOGGLE	F	Used for Stripping
CONDIT	TWOPARAM	F	1.50000E+001	0.00000E+000	Conditionin&g	Time(s)	E(V)
DELAY	TWOPARAM	F	3.00000E+001	0.00000E+000	Init. De&lay	Time(s)	Stab.(mV/s)
EQDELAY	QUANT	0.00000E+000	Equil. &Time (s)
IRCOMP	SELECTOR	0	IRCom&p
PFCOR	QUANT	5.00000E+001	PF Corr. (ohm)
SAMPLINGMODE	SELECTOR	1	Sampling &Mode
EOC	QUANT	0	Open Circuit (V)
PSTATMODEL	IQUANT	5	Pstat Model
PSTATSECTION	LABEL	REF3000-20110	Pstat Section
PSTATSERIALNO	LABEL	20110	Pstat Serial Number
CTRLMODE	IQUANT	1	Control Mode
ELECTROMETER	IQUANT	0	RE=0 or CS=1
IESTAB	IQUANT	2	I/E Stability
CASPEED	IQUANT	4	Control Amp Speed
CONVENTION	IQUANT	1	Current Convention
ICHRANGE	IQUANT	2	Ich Range
ICHRANGEMODE	TOGGLE	F	Ich Auto Range
ICHOFFSETENABLE	TOGGLE	F	Ich Offset Enable
ICHOFFSET	QUANT	0	Ich Offset (V)
ICHFILTER	IQUANT	2	Ich Filter
VCHRANGE	IQUANT	2	Vch Range
VCHRANGEMODE	TOGGLE	F	Vch Auto Range
VCHOFFSETENABLE	TOGGLE	F	Vch Offset Enable
VCHOFFSET	QUANT	0	Vch Offset (V)
VCHFILTER	IQUANT	2	Vch Filter
ACHRANGE	IQUANT	2	Ach Range
ACHOFFSETENABLE	TOGGLE	F	Ach Offset Enable
ACHOFFSET	QUANT	0	Ach Offset (V)
ACHFILTER	IQUANT	1	Ach Filter
IERANGELOWERLIMIT	IQUANT	2	I/E Range Lower Limit
IERANGEMODE	TOGGLE	T	I/E AutoRange
IERANGE	IQUANT	9	I/E Range
POSFEEDENABLE	TOGGLE	F	Positive Feedback IR Comp
POSFEEDRESISTANCE	QUANT	0	Positive Feedback Resistance (ohm)
ACHSELECT	IQUANT	4	Ach Select
SENSECABLEID	IQUANT	14	Sense Cable ID
PWRCABLEID	IQUANT	7	Power Cable ID
DCCALDATE	LABEL	8/9/2022	DC Calibration Date
ACCALDATE	LABEL	8/9/2022	AC Calibration Date
THERMOSELECT	IQUANT	1	Thermo Select
FRAMEWORKVERSION	LABEL	7.9.0	Framework Version
INSTRUMENTVERSION	LABEL	4.60	Instrument Version
COMPLIANCEVOLTAGE	IQUANT	0	Compliance Voltage
CURVE1	TABLE
	Pt	T	Vf	Im	Vu	Sig	Ach	IERange	Over	Temp
	#	s	V vs. Ref.	A	V	V	V	#	bits	deg C
	0	0.02	-4.99430E-001	3.28722E-003	0.00000E+000	-5.00000E-001	7.02576E-004	9	....ih.....	-327.63
	10	0.22	-4.78578E-001	8.84548E-003	0.00000E+000	-4.80000E-001	7.13410E-004	10	...........	-327.63
	20	0.42	-4.58635E-001	8.98993E-003	0.00000E+000	-4.60000E-001	7.30076E-004	10	...........	-327.63
	30	0.62	-4.38654E-001	8.86722E-003	0.00000E+000	-4.40000E-001	7.05076E-004	10	...........	-327.63
	40	0.82	-4.18684E-001	8.55369E-003	0.00000E+000	-4.20000E-001	7.27576E-004	10	...........	-327.63
	50	1.02	-3.98687E-001	8.09821E-003	0.00000E+000	-4.00000E-001	6.97576E-004	10	...........	-327.63
	60	1.22	-3.78718E-001	7.56608E-003	0.00000E+000	-3.80000E-001	7.18410E-004	10	...........	-327.63
	70	1.42	-3.58720E-001	6.98570E-003	0.00000E+000	-3.60000E-001	7.10910E-004	10	...........	-327.63
	80	1.62	-3.38743E-001	6.37980E-003	0.00000E+000	-3.40000E-001	7.23410E-004	10	...........	-327.63
	90	1.82	-3.18782E-001	5.75589E-003	0.00000E+000	-3.20000E-001	7.02576E-004	10	...........	-327.63
	100	2.02	-2.98808E-001	5.14948E-003	0.00000E+000	-3.00000E-001	7.21743E-004	10	...........	-327.63
	110	2.22	-2.78824E-001	4.59154E-003	0.00000E+000	-2.80000E-001	7.06743E-004	10	...........	-327.63
	120	2.42	-2.58832E-001	4.09135E-003	0.00000E+000	-2.60000E-001	7.17576E-004	10	...........	-327.63
	130	2.62	-2.38871E-001	3.66640E-003	0.00000E+000	-2.40000E-001	6.94243E-004	10	...........	-327.63
	140	2.82	-2.18871E-001	3.30985E-003	0.00000E+000	-2.20000E-001	7.22576E-004	10	...........	-327.63
	150	3.02	-1.98902E-001	3.02404E-003	0.00000E+000	-2.00000E-001	6.94243E-004	10	...........	-327.63
	160	3.22	-1.78927E-001	2.79935E-003	0.00000E+000	-1.80000E-001	7.15910E-004	10	...........	-327.63
	170	3.42	-1.58958E-001	2.62095E-003	0.00000E+000	-1.60000E-001	7.10076E-004	10	...........	-327.63
	180	3.62	-1.38985E-001	2.48623E-003	0.00000E+000	-1.40000E-001	7.08410E-004	10	...........	-327.63
	190	3.82	-1.19367E-001	2.38050E-003	0.00000E+000	-1.20000E-001	7.25076E-004	9	...........	-327.63
	200	4.02	-9.94098E-002	2.30238E-003	0.00000E+000	-1.00000E-001	7.11743E-004	9	...........	-327.63
	210	4.22	-7.94149E-002	2.24212E-003	0.00000E+000	-8.00000E-002	7.30076E-004	9	...........	-327.63
	220	4.42	-5.94536E-002	2.19157E-003	0.00000E+000	-6.00000E-002	7.10910E-004	9	...........	-327.63
	230	4.62	-3.94657E-002	2.15297E-003	0.00000E+000	-4.00000E-002	7.32576E-004	9	...........	-327.63
	240	4.82	-1.94890E-002	2.12147E-003	0.00000E+000	-2.00000E-002	7.22576E-004	9	...........	-327.63
	250	5.02	4.88897E-004	2.09722E-003	0.00000E+000	0.00000E+000	7.24243E-004	9	...........	-327.63
	260	5.22	2.04793E-002	2.07733E-003	0.00000E+000	2.00000E-002	7.15910E-004	9	...........	-327.63
	270	5.42	4.04501E-002	2.05824E-003	0.00000E+000	4.00000E-002	7.07576E-004	9	...........	-327.63
	280	5.62	6.04447E-002	2.04509E-003	0.00000E+000	6.00000E-002	7.16743E-004	9	...........	-327.63
	290	5.82	8.04051E-002	2.03520E-003	0.00000E+000	8.00000E-002	7.33410E-004	9	...........	-327.63
	300	6.02	1.00392E-001	2.02829E-003	0.00000E+000	1.00000E-001	7.09243E-004	9	...........	-327.63
	310	6.22	1.20336E-001	2.02391E-003	0.00000E+000	1.20000E-001	7.36743E-004	9	...........	-327.63
	320	6.42	1.40328E-001	2.02181E-003	0.00000E+000	1.40000E-001	7.01743E-004	9	...........	-327.63
	330	6.62	1.60290E-001	2.01832E-003	0.00000E+000	1.60000E-001	7.15076E-004	9	...........	-327.63
	340	6.82	1.80236E-001	2.01944E-003	0.00000E+000	1.80000E-001	7.06743E-004	9	...........	-327.63
	350	7.02	2.00237E-001	2.02310E-003	0.00000E+000	2.00000E-001	7.22576E-004	9	...........	-327.63
	360	7.22	2.20211E-001	2.02467E-003	0.00000E+000	2.20000E-001	7.09243E-004	9	...........	-327.63
	370	7.42	2.40198E-001	2.02933E-003	0.00000E+000	2.40000E-001	7.15910E-004	9	...........	-327.63
	380	7.62	2.60148E-001	2.03544E-003	0.00000E+000	2.60000E-001	7.23410E-004	9	...........	-327.63
	390	7.82	2.80135E-001	2.04307E-003	0.00000E+000	2.80000E-001	6.91743E-004	9	...........	-327.63
	400	8.02	3.00088E-001	2.05066E-003	0.00000E+000	3.00000E-001	7.17576E-004	9	...........	-327.63
	410	8.22	3.20034E-001	2.05706E-003	0.00000E+000	3.20000E-001	7.10910E-004	9	...........	-327.63
	420	8.42	3.40033E-001	2.06547E-003	0.00000E+000	3.40000E-001	7.05076E-004	9	...........	-327.63
	430	8.62	3.59983E-001	2.07534E-003	0.00000E+000	3.60000E-001	7.16743E-004	9	...........	-327.63
	440	8.82	3.79957E-001	2.08593E-003	0.00000E+000	3.80000E-001	7.36743E-004	9	...........	-327.63
	450	9.02	3.99924E-001	2.09671E-003	0.00000E+000	4.00000E-001	6.88410E-004	9	...........	-327.63
	460	9.22	4.19905E-001	2.10507E-003	0.00000E+000	4.20000E-001	7.10076E-004	9	...........	-327.63
	470	9.42	4.39853E-001	2.11845E-003	0.00000E+000	4.40000E-001	7.04243E-004	9	...........	-327.63
	480	9.62	4.59832E-001	2.13295E-003	0.00000E+000	4.60000E-001	7.27576E-004	9	...........	-327.63
[...]
	3145	62.92	-2.09132E-001	1.28979E-003	0.00000E+000	-2.10000E-001	3.89243E-004	9	...........	-327.63
	3148	62.98	-2.03130E-001	1.29530E-003	0.00000E+000	-2.04000E-001	4.20076E-004	9	...........	-327.63
	3151	63.04	-1.97158E-001	1.29992E-003	0.00000E+000	-1.98000E-001	3.97576E-004	9	...........	-327.63
	3154	63.1	-1.91171E-001	1.30538E-003	0.00000E+000	-1.92000E-001	4.48410E-004	9	...........	-327.63
	3157	63.16	-1.85162E-001	1.31278E-003	0.00000E+000	-1.86000E-001	4.06743E-004	9	...........	-327.63
	3160	63.22	-1.79162E-001	1.31893E-003	0.00000E+000	-1.80000E-001	4.39243E-004	9	...........	-327.63
	3163	63.28	-1.73194E-001	1.32353E-003	0.00000E+000	-1.74000E-001	3.88410E-004	9	...........	-327.63
	3166	63.34	-1.67195E-001	1.32950E-003	0.00000E+000	-1.68000E-001	4.40910E-004	9	...........	-327.63
	3169	63.4	-1.61197E-001	1.33379E-003	0.00000E+000	-1.62000E-001	3.95076E-004	9	...........	-327.63
	3172	63.46	-1.55206E-001	1.34040E-003	0.00000E+000	-1.56000E-001	4.36743E-004	9	...........	-327.63
	3175	63.52	-1.49238E-001	1.34284E-003	0.00000E+000	-1.50000E-001	4.06743E-004	9	...........	-327.63
	3178	63.58	-1.43230E-001	1.34732E-003	0.00000E+000	-1.44000E-001	4.33410E-004	9	...........	-327.63
	3181	63.64	-1.37262E-001	1.35231E-003	0.00000E+000	-1.38000E-001	3.72576E-004	9	...........	-327.63
	3184	63.7	-1.31252E-001	1.35763E-003	0.00000E+000	-1.32000E-001	4.39243E-004	9	...........	-327.63
	3187	63.76	-1.25270E-001	1.36354E-003	0.00000E+000	-1.26000E-001	4.15076E-004	9	...........	-327.63
	3190	63.82	-1.19269E-001	1.36827E-003	0.00000E+000	-1.20000E-001	4.35076E-004	9	...........	-327.63
	3193	63.88	-1.13288E-001	1.37388E-003	0.00000E+000	-1.14000E-001	4.07576E-004	9	...........	-327.63
	3196	63.94	-1.07294E-001	1.37930E-003	0.00000E+000	-1.08000E-001	4.35076E-004	9	...........	-327.63
	3199	64	-1.01316E-001	1.38349E-003	0.00000E+000	-1.02000E-001	4.06743E-004	9	...........	-327.63
	3202	64.06	-9.53149E-002	1.39249E-003	0.00000E+000	-9.60000E-002	4.30076E-004	9	...........	-327.63
	3205	64.12	-8.93278E-002	1.39589E-003	0.00000E+000	-9.00000E-002	3.91743E-004	9	...........	-327.63
	3208	64.18	-8.33419E-002	1.40126E-003	0.00000E+000	-8.40000E-002	4.21743E-004	9	...........	-327.63
	3211	64.24	-7.73448E-002	1.40659E-003	0.00000E+000	-7.80000E-002	4.18410E-004	9	...........	-327.63
	3214	64.3	-7.13578E-002	1.41283E-003	0.00000E+000	-7.20000E-002	4.30910E-004	9	...........	-327.63
	3217	64.36	-6.53415E-002	1.41781E-003	0.00000E+000	-6.60000E-002	4.07576E-004	9	...........	-327.63
	3220	64.42	-5.93748E-002	1.42422E-003	0.00000E+000	-6.00000E-002	4.27576E-004	9	...........	-327.63
	3223	64.48	-5.33740E-002	1.42875E-003	0.00000E+000	-5.40000E-002	4.18410E-004	9	...........	-327.63
	3226	64.54	-4.73878E-002	1.43449E-003	0.00000E+000	-4.80000E-002	4.33410E-004	9	...........	-327.63
	3229	64.6	-4.14032E-002	1.44037E-003	0.00000E+000	-4.20000E-002	4.02576E-004	9	...........	-327.63
	3232	64.66	-3.54273E-002	1.44625E-003	0.00000E+000	-3.60000E-002	4.27576E-004	9	...........	-327.63
	3235	64.72	-2.94140E-002	1.45201E-003	0.00000E+000	-3.00000E-002	4.07576E-004	9	...........	-327.63
	3238	64.78	-2.34253E-002	1.45823E-003	0.00000E+000	-2.40000E-002	4.41743E-004	9	...........	-327.63
	3241	64.84	-1.74165E-002	1.46296E-003	0.00000E+000	-1.80000E-002	3.85910E-004	9	...........	-327.63
	3244	64.9	-1.14769E-002	1.46881E-003	0.00000E+000	-1.20000E-002	4.39243E-004	9	...........	-327.63
	3247	64.96	-5.43277E-003	1.47398E-003	0.00000E+000	-6.00000E-003	4.20076E-004	9	...........	-327.63
	3250	65.02	5.51398E-004	1.47966E-003	0.00000E+000	0.00000E+000	4.27576E-004	9	...........	-327.63

File: CV_fullWindow_newBuffer_1.DTA
EXPLAIN
TAG	CV
TITLE	LABEL	Cyclic Voltammetry	Test &Identifier
DATE	LABEL	5-12-2022	Date
TIME	LABEL	13:25:38	Time
NOTES	NOTES	1	&Notes...

PSTAT	PSTAT	REF3000-20110	Potentiostat
VINIT	POTEN	0.00000E+000	F	Initial &E (V)
VLIMIT1	POTEN	5.00000E-001	F	Scan Limit &1 (V)
VLIMIT2	POTEN	-5.00000E-001	F	Scan Limit &2 (V)
VFINAL	POTEN	0.00000E+000	F	Final &E (V)
SCANRATE	QUANT	9.99998E+001	&Scan Rate (mV/s)
STEPSIZE	QUANT	2.00000E+000	St&ep Size (mV)
CYCLES	IQUANT	3	C&ycles (#)
IMODE	SELECTOR	0	I/E Range &Mode
IRANGE	QUANT	3.00000E-001	&Max Current (mA)
AREA	QUANT	1.00000E+000	Electrode &Area (cm^2)
ELECTRODETYPE	SELECTOR	0	Electrode Type
STRIPPING	TOGGLE	F	Used for Stripping
CONDIT	TWOPARAM	F	1.50000E+001	0.00000E+000	Conditionin&g	Time(s)	E(V)
DELAY	TWOPARAM	F	3.00000E+001	0.00000E+000	Init. De&lay	Time(s)	Stab.(mV/s)
EQDELAY	QUANT	0.00000E+000	Equil. &Time (s)
IRCOMP	SELECTOR	0	IRCom&p
PFCOR	QUANT	5.00000E+001	PF Corr. (ohm)
SAMPLINGMODE	SELECTOR	1	Sampling &Mode
EOC	QUANT	0	Open Circuit (V)
PSTATMODEL	IQUANT	5	Pstat Model
PSTATSECTION	LABEL	REF3000-20110	Pstat Section
PSTATSERIALNO	LABEL	20110	Pstat Serial Number
CTRLMODE	IQUANT	1	Control Mode
ELECTROMETER	IQUANT	0	RE=0 or CS=1
IESTAB	IQUANT	2	I/E Stability
CASPEED	IQUANT	4	Control Amp Speed
CONVENTION	IQUANT	1	Current Convention
ICHRANGE	IQUANT	2	Ich Range
ICHRANGEMODE	TOGGLE	F	Ich Auto Range
ICHOFFSETENABLE	TOGGLE	F	Ich Offset Enable
ICHOFFSET	QUANT	0	Ich Offset (V)
ICHFILTER	IQUANT	2	Ich Filter
VCHRANGE	IQUANT	2	Vch Range
VCHRANGEMODE	TOGGLE	F	Vch Auto Range
VCHOFFSETENABLE	TOGGLE	F	Vch Offset Enable
VCHOFFSET	QUANT	0	Vch Offset (V)
VCHFILTER	IQUANT	2	Vch Filter
ACHRANGE	IQUANT	2	Ach Range
ACHOFFSETENABLE	TOGGLE	F	Ach Offset Enable
ACHOFFSET	QUANT	0	Ach Offset (V)
ACHFILTER	IQUANT	1	Ach Filter
IERANGELOWERLIMIT	IQUANT	2	I/E Range Lower Limit
IERANGEMODE	TOGGLE	T	I/E AutoRange
IERANGE	IQUANT	9	I/E Range
POSFEEDENABLE	TOGGLE	F	Positive Feedback IR Comp
POSFEEDRESISTANCE	QUANT	0	Positive Feedback Resistance (ohm)
ACHSELECT	IQUANT	4	Ach Select
SENSECABLEID	IQUANT	14	Sense Cable ID
PWRCABLEID	IQUANT	7	Power Cable ID
DCCALDATE	LABEL	8/9/2022	DC Calibration Date
ACCALDATE	LABEL	8/9/2022	AC Calibration Date
THERMOSELECT	IQUANT	1	Thermo Select
FRAMEWORKVERSION	LABEL	7.9.0	Framework Version
INSTRUMENTVERSION	LABEL	4.60	Instrument Version
COMPLIANCEVOLTAGE	IQUANT	0	Compliance Voltage
CURVE1	TABLE
	Pt	T	Vf	Im	Vu	Sig	Ach	IERange	Over	Temp
	#	s	V vs. Ref.	A	V	V	V	#	bits	deg C
	0	0.02	-4.39069E-003	-8.27571E-008	0.00000E+000	0.00000E+000	7.13410E-004	9	...........	-327.63
	8	0.18	1.17876E-002	2.03433E-008	0.00000E+000	1.60000E-002	7.12576E-004	7	...........	-327.63
	16	0.34	2.78555E-002	1.97183E-008	0.00000E+000	3.20000E-002	7.18410E-004	7	...........	-327.63
	24	0.5	4.39176E-002	1.96099E-008	0.00000E+000	4.80000E-002	6.85076E-004	7	...........	-327.63
	32	0.66	6.00130E-002	1.90266E-008	0.00000E+000	6.40000E-002	7.05076E-004	7	...........	-327.63
	40	0.82	7.61230E-002	1.86682E-008	0.00000E+000	8.00000E-002	7.25076E-004	7	...........	-327.63
	48	0.98	9.23068E-002	1.80557E-008	0.00000E+000	9.60000E-002	7.11743E-004	7	...........	-327.63
	56	1.14	1.08393E-001	1.75890E-008	0.00000E+000	1.12000E-001	7.28410E-004	7	...........	-327.63
	64	1.3	1.24484E-001	1.72515E-008	0.00000E+000	1.28000E-001	7.45910E-004	7	...........	-327.63
	72	1.46	1.40541E-001	1.66848E-008	0.00000E+000	1.44000E-001	7.25910E-004	7	...........	-327.63
	80	1.62	1.56713E-001	1.61348E-008	0.00000E+000	1.60000E-001	7.15910E-004	7	...........	-327.63
	88	1.78	1.72785E-001	1.56598E-008	0.00000E+000	1.76000E-001	7.40076E-004	7	...........	-327.63
	96	1.94	1.88924E-001	1.53056E-008	0.00000E+000	1.92000E-001	7.22576E-004	7	...........	-327.63
	104	2.1	2.05016E-001	1.45348E-008	0.00000E+000	2.08000E-001	7.15076E-004	7	...........	-327.63
	112	2.26	2.21170E-001	1.40056E-008	0.00000E+000	2.24000E-001	7.07576E-004	7	...........	-327.63
	120	2.42	2.37329E-001	1.34139E-008	0.00000E+000	2.40000E-001	7.18410E-004	7	...........	-327.63
	128	2.58	2.53445E-001	1.29555E-008	0.00000E+000	2.56000E-001	7.25076E-004	7	...h.......	-327.63
	136	2.74	2.69639E-001	1.18638E-008	0.00000E+000	2.72000E-001	6.90910E-004	7	...h.......	-327.63
	144	2.9	2.85796E-001	1.11888E-008	0.00000E+000	2.88000E-001	7.15910E-004	7	...h.......	-327.63
	152	3.06	3.01899E-001	1.07305E-008	0.00000E+000	3.04000E-001	7.13410E-004	7	...........	-327.63
	160	3.22	3.18032E-001	1.00804E-008	0.00000E+000	3.20000E-001	7.11743E-004	7	...h.......	-327.63
	168	3.38	3.34178E-001	9.43457E-009	0.00000E+000	3.36000E-001	7.12576E-004	7	...h.......	-327.63
	176	3.54	3.50324E-001	8.63454E-009	0.00000E+000	3.52000E-001	7.40076E-004	7	...h.......	-327.63
	184	3.7	3.66531E-001	7.56783E-009	0.00000E+000	3.68000E-001	7.17576E-004	7	...........	-327.63
	192	3.86	3.82728E-001	6.69280E-009	0.00000E+000	3.84000E-001	7.13410E-004	7	...........	-327.63
	200	4.02	3.98934E-001	5.86360E-009	0.00000E+000	4.00000E-001	7.14243E-004	7	...........	-327.63
	208	4.18	4.15144E-001	5.04691E-009	0.00000E+000	4.16000E-001	7.19243E-004	7	...........	-327.63
	216	4.34	4.31314E-001	4.38855E-009	0.00000E+000	4.32000E-001	7.35076E-004	7	...........	-327.63
	224	4.5	4.47497E-001	3.83436E-009	0.00000E+000	4.48000E-001	7.19243E-004	7	...........	-327.63
	232	4.66	4.63643E-001	2.75515E-009	0.00000E+000	4.64000E-001	7.13410E-004	7	...........	-327.63
	240	4.82	4.79843E-001	2.10096E-009	0.00000E+000	4.80000E-001	7.30076E-004	7	...........	-327.63
	248	4.98	4.96080E-001	1.28010E-009	0.00000E+000	4.96000E-001	7.21743E-004	7	...........	-327.63
	256	5.14	4.88321E-001	1.88392E-010	0.00000E+000	4.88000E-001	7.22576E-004	7	...........	-327.63
	264	5.3	4.72568E-001	-3.61628E-010	0.00000E+000	4.72000E-001	7.26743E-004	7	...........	-327.63
	272	5.46	4.56768E-001	-1.06582E-009	0.00000E+000	4.56000E-001	7.23410E-004	7	...........	-327.63
	280	5.62	4.40977E-001	-1.68668E-009	0.00000E+000	4.40000E-001	6.98410E-004	7	...........	-327.63
	288	5.78	4.25170E-001	-2.20753E-009	0.00000E+000	4.24000E-001	7.19243E-004	7	...........	-327.63
	296	5.94	4.09370E-001	-3.10340E-009	0.00000E+000	4.08000E-001	7.31743E-004	7	...........	-327.63
	304	6.1	3.93570E-001	-3.68675E-009	0.00000E+000	3.92000E-001	7.04243E-004	7	...........	-327.63
	312	6.26	3.77713E-001	-4.23677E-009	0.00000E+000	3.76000E-001	7.01743E-004	7	...........	-327.63
	320	6.42	3.61883E-001	-4.86180E-009	0.00000E+000	3.60000E-001	7.13410E-004	7	...........	-327.63
	328	6.58	3.46079E-001	-5.38682E-009	0.00000E+000	3.44000E-001	7.07576E-004	7	...........	-327.63
	336	6.74	3.30223E-001	-6.13268E-009	0.00000E+000	3.28000E-001	7.15910E-004	7	...........	-327.63
	344	6.9	3.14393E-001	-6.94521E-009	0.00000E+000	3.12000E-001	7.15910E-004	7	...........	-327.63
	352	7.06	2.98548E-001	-7.57440E-009	0.00000E+000	2.96000E-001	7.09243E-004	7	...........	-327.63
	360	7.22	2.82663E-001	-7.91191E-009	0.00000E+000	2.80000E-001	7.00910E-004	7	...........	-327.63
	368	7.38	2.66766E-001	-8.04942E-009	0.00000E+000	2.64000E-001	7.20910E-004	7	...........	-327.63
	376	7.54	2.50801E-001	-8.28276E-009	0.00000E+000	2.48000E-001	7.29243E-004	7	...........	-327.63
	384	7.7	2.34834E-001	-8.45360E-009	0.00000E+000	2.32000E-001	7.24243E-004	7	...........	-327.63
	392	7.86	2.18869E-001	-8.68277E-009	0.00000E+000	2.16000E-001	7.29243E-004	7	...........	-327.63
[...]
	2895	57.92	-2.09665E-001	1.12593E-009	0.00000E+000	-2.10000E-001	3.81743E-004	7	...........	-327.63
	2898	57.98	-2.03714E-001	1.30093E-009	0.00000E+000	-2.04000E-001	3.91743E-004	7	...........	-327.63
	2901	58.04	-1.97721E-001	1.49677E-009	0.00000E+000	-1.98000E-001	3.95910E-004	7	...........	-327.63
	2904	58.1	-1.91761E-001	1.53844E-009	0.00000E+000	-1.92000E-001	3.90910E-004	7	...........	-327.63
	2907	58.16	-1.85797E-001	1.60928E-009	0.00000E+000	-1.86000E-001	4.11743E-004	7	...........	-327.63
	2910	58.22	-1.79817E-001	1.75928E-009	0.00000E+000	-1.80000E-001	4.05076E-004	7	...........	-327.63
	2913	58.28	-1.73836E-001	2.03013E-009	0.00000E+000	-1.74000E-001	3.69243E-004	7	...........	-327.63
	2916	58.34	-1.67850E-001	2.27597E-009	0.00000E+000	-1.68000E-001	3.75910E-004	7	...........	-327.63
	2919	58.4	-1.61917E-001	2.50515E-009	0.00000E+000	-1.62000E-001	3.59243E-004	7	...........	-327.63
	2922	58.46	-1.55929E-001	2.66348E-009	0.00000E+000	-1.56000E-001	3.95076E-004	7	...........	-327.63
	2925	58.52	-1.49983E-001	2.77599E-009	0.00000E+000	-1.50000E-001	3.77576E-004	7	...........	-327.63
	2928	58.58	-1.43991E-001	3.18850E-009	0.00000E+000	-1.44000E-001	4.01743E-004	7	...........	-327.63
	2931	58.64	-1.38048E-001	3.48018E-009	0.00000E+000	-1.38000E-001	3.76743E-004	7	...........	-327.63
	2934	58.7	-1.32085E-001	3.70102E-009	0.00000E+000	-1.32000E-001	3.95076E-004	7	...........	-327.63
	2937	58.76	-1.26103E-001	3.89270E-009	0.00000E+000	-1.26000E-001	3.80910E-004	7	...........	-327.63
	2940	58.82	-1.20152E-001	4.02604E-009	0.00000E+000	-1.20000E-001	3.80910E-004	7	...........	-327.63
	2943	58.88	-1.14184E-001	4.18854E-009	0.00000E+000	-1.14000E-001	4.10076E-004	7	...........	-327.63
	2946	58.94	-1.08236E-001	4.16354E-009	0.00000E+000	-1.08000E-001	4.06743E-004	7	...........	-327.63
	2949	59	-1.02264E-001	4.53022E-009	0.00000E+000	-1.02000E-001	3.78410E-004	7	...........	-327.63
	2952	59.06	-9.62991E-002	4.65939E-009	0.00000E+000	-9.60000E-002	4.20910E-004	7	...........	-327.63
	2955	59.12	-9.03191E-002	4.72189E-009	0.00000E+000	-9.00000E-002	3.70076E-004	7	...........	-327.63
	2958	59.18	-8.43853E-002	5.08857E-009	0.00000E+000	-8.40000E-002	4.00910E-004	7	...........	-327.63
	2961	59.24	-7.84395E-002	5.05524E-009	0.00000E+000	-7.80000E-002	3.89243E-004	7	...........	-327.63
	2964	59.3	-7.24703E-002	5.41359E-009	0.00000E+000	-7.20000E-002	3.93410E-004	7	...........	-327.63
	2967	59.36	-6.64282E-002	5.56359E-009	0.00000E+000	-6.60000E-002	3.78410E-004	7	...........	-327.63
	2970	59.42	-6.01657E-002	5.59276E-009	0.00000E+000	-6.00000E-002	3.88410E-004	7	...........	-327.63
	2973	59.48	-5.40528E-002	6.04278E-009	0.00000E+000	-5.40000E-002	4.10910E-004	7	...........	-327.63
	2976	59.54	-4.79503E-002	6.23028E-009	0.00000E+000	-4.80000E-002	3.95910E-004	7	...........	-327.63
	2979	59.6	-4.26345E-002	6.68863E-009	0.00000E+000	-4.20000E-002	3.75076E-004	7	...........	-327.63
	2982	59.66	-3.66907E-002	6.92614E-009	0.00000E+000	-3.60000E-002	3.92576E-004	7	...........	-327.63
	2985	59.72	-3.07157E-002	6.98031E-009	0.00000E+000	-3.00000E-002	3.82576E-004	7	...........	-327.63
	2988	59.78	-2.39891E-002	7.12615E-009	0.00000E+000	-2.40000E-002	3.91743E-004	7	...........	-327.63
	2991	59.84	-1.86516E-002	7.73451E-009	0.00000E+000	-1.80000E-002	4.02576E-004	7	...........	-327.63
	2994	59.9	-1.28162E-002	8.00118E-009	0.00000E+000	-1.20000E-002	3.83410E-004	7	...........	-327.63
	2997	59.96	-6.87949E-003	8.22202E-009	0.00000E+000	-6.00000E-003	3.95910E-004	7	...........	-327.63
	3000	60.02	-9.30743E-004	8.53454E-009	0.00000E+000	0.00000E+000	3.89243E-004	7	...........	-327.63