Folder: iongate/Gamry (part 5)

File: CV_smallGrid_newBuffer_4.DTA
EXPLAIN
TAG	CV
TITLE	LABEL	Cyclic Voltammetry	Test &Identifier
DATE	LABEL	5-12-2022	Date
TIME	LABEL	13:16:01	Time
NOTES	NOTES	1	&Notes...

PSTAT	PSTAT	REF3000-20110	Potentiostat
VINIT	POTEN	0.00000E+000	F	Initial &E (V)
VLIMIT1	POTEN	5.00000E-001	F	Scan Limit &1 (V)
VLIMIT2	POTEN	-5.00000E-001	F	Scan Limit &2 (V)
VFINAL	POTEN	0.00000E+000	F	Final &E (V)
SCANRATE	QUANT	9.99998E+001	&Scan Rate (mV/s)
STEPSIZE	QUANT	2.00000E+000	St&ep Size (mV)
CYCLES	IQUANT	3	C&ycles (#)
IMODE	SELECTOR	0	I/E Range &Mode
IRANGE	QUANT	3.00000E-001	&Max Current (mA)
AREA	QUANT	1.00000E+000	Electrode &Area (cm^2)
ELECTRODETYPE	SELECTOR	0	Electrode Type
STRIPPING	TOGGLE	F	Used for Stripping
CONDIT	TWOPARAM	F	1.50000E+001	0.00000E+000	Conditionin&g	Time(s)	E(V)
DELAY	TWOPARAM	F	3.00000E+001	0.00000E+000	Init. De&lay	Time(s)	Stab.(mV/s)
EQDELAY	QUANT	0.00000E+000	Equil. &Time (s)
IRCOMP	SELECTOR	0	IRCom&p
PFCOR	QUANT	5.00000E+001	PF Corr. (ohm)
SAMPLINGMODE	SELECTOR	1	Sampling &Mode
EOC	QUANT	0	Open Circuit (V)
PSTATMODEL	IQUANT	5	Pstat Model
PSTATSECTION	LABEL	REF3000-20110	Pstat Section
PSTATSERIALNO	LABEL	20110	Pstat Serial Number
CTRLMODE	IQUANT	1	Control Mode
ELECTROMETER	IQUANT	0	RE=0 or CS=1
IESTAB	IQUANT	2	I/E Stability
CASPEED	IQUANT	4	Control Amp Speed
CONVENTION	IQUANT	1	Current Convention
ICHRANGE	IQUANT	2	Ich Range
ICHRANGEMODE	TOGGLE	F	Ich Auto Range
ICHOFFSETENABLE	TOGGLE	F	Ich Offset Enable
ICHOFFSET	QUANT	0	Ich Offset (V)
ICHFILTER	IQUANT	2	Ich Filter
VCHRANGE	IQUANT	2	Vch Range
VCHRANGEMODE	TOGGLE	F	Vch Auto Range
VCHOFFSETENABLE	TOGGLE	F	Vch Offset Enable
VCHOFFSET	QUANT	0	Vch Offset (V)
VCHFILTER	IQUANT	2	Vch Filter
ACHRANGE	IQUANT	2	Ach Range
ACHOFFSETENABLE	TOGGLE	F	Ach Offset Enable
ACHOFFSET	QUANT	0	Ach Offset (V)
ACHFILTER	IQUANT	1	Ach Filter
IERANGELOWERLIMIT	IQUANT	2	I/E Range Lower Limit
IERANGEMODE	TOGGLE	T	I/E AutoRange
IERANGE	IQUANT	9	I/E Range
POSFEEDENABLE	TOGGLE	F	Positive Feedback IR Comp
POSFEEDRESISTANCE	QUANT	0	Positive Feedback Resistance (ohm)
ACHSELECT	IQUANT	4	Ach Select
SENSECABLEID	IQUANT	14	Sense Cable ID
PWRCABLEID	IQUANT	7	Power Cable ID
DCCALDATE	LABEL	8/9/2022	DC Calibration Date
ACCALDATE	LABEL	8/9/2022	AC Calibration Date
THERMOSELECT	IQUANT	1	Thermo Select
FRAMEWORKVERSION	LABEL	7.9.0	Framework Version
INSTRUMENTVERSION	LABEL	4.60	Instrument Version
COMPLIANCEVOLTAGE	IQUANT	0	Compliance Voltage
CURVE1	TABLE
	Pt	T	Vf	Im	Vu	Sig	Ach	IERange	Over	Temp
	#	s	V vs. Ref.	A	V	V	V	#	bits	deg C
	0	0.02	7.96814E-004	-5.80947E-008	0.00000E+000	0.00000E+000	6.63410E-004	9	...........	-327.63
	8	0.18	1.68876E-002	-5.09097E-009	0.00000E+000	1.60000E-002	6.38410E-004	7	...........	-327.63
	16	0.34	3.28522E-002	-5.44932E-009	0.00000E+000	3.20000E-002	6.37576E-004	7	...........	-327.63
	24	0.5	4.88426E-002	-5.12847E-009	0.00000E+000	4.80000E-002	6.35910E-004	7	...........	-327.63
	32	0.66	6.47913E-002	-5.01180E-009	0.00000E+000	6.40000E-002	6.45076E-004	7	...........	-327.63
	40	0.82	8.06884E-002	-4.54512E-009	0.00000E+000	8.00000E-002	6.37576E-004	7	...........	-327.63
	48	0.98	9.67076E-002	-5.17431E-009	0.00000E+000	9.60000E-002	6.36743E-004	7	...........	-327.63
	56	1.14	1.12674E-001	-5.35765E-009	0.00000E+000	1.12000E-001	6.37576E-004	7	...........	-327.63
	64	1.3	1.28630E-001	-5.30765E-009	0.00000E+000	1.28000E-001	6.40910E-004	7	...........	-327.63
	72	1.46	1.44627E-001	-5.06597E-009	0.00000E+000	1.44000E-001	6.39243E-004	7	...........	-327.63
	80	1.62	1.60534E-001	-4.91596E-009	0.00000E+000	1.60000E-001	6.45910E-004	7	...........	-327.63
	88	1.78	1.76592E-001	-5.16181E-009	0.00000E+000	1.76000E-001	6.54243E-004	7	...........	-327.63
	96	1.94	1.92541E-001	-5.04097E-009	0.00000E+000	1.92000E-001	6.55076E-004	7	...........	-327.63
	104	2.1	2.08517E-001	-4.91596E-009	0.00000E+000	2.08000E-001	6.38410E-004	7	...........	-327.63
	112	2.26	2.24498E-001	-4.69096E-009	0.00000E+000	2.24000E-001	6.48410E-004	7	...........	-327.63
	120	2.42	2.40465E-001	-4.82429E-009	0.00000E+000	2.40000E-001	6.39243E-004	7	...........	-327.63
	128	2.58	2.56428E-001	-4.92430E-009	0.00000E+000	2.56000E-001	6.59243E-004	7	...........	-327.63
	136	2.74	2.72569E-001	-4.81179E-009	0.00000E+000	2.72000E-001	6.64243E-004	7	...........	-327.63
	144	2.9	2.88437E-001	-4.76596E-009	0.00000E+000	2.88000E-001	6.33410E-004	7	...........	-327.63
	152	3.06	3.04430E-001	-4.71179E-009	0.00000E+000	3.04000E-001	6.46743E-004	7	...........	-327.63
	160	3.22	3.20369E-001	-4.88680E-009	0.00000E+000	3.20000E-001	6.50910E-004	7	...........	-327.63
	168	3.38	3.36323E-001	-4.72429E-009	0.00000E+000	3.36000E-001	6.30910E-004	7	...........	-327.63
	176	3.54	3.52309E-001	-4.54095E-009	0.00000E+000	3.52000E-001	6.35910E-004	7	...........	-327.63
	184	3.7	3.68248E-001	-4.42428E-009	0.00000E+000	3.68000E-001	6.52576E-004	7	...........	-327.63
	192	3.86	3.84211E-001	-4.51595E-009	0.00000E+000	3.84000E-001	6.30076E-004	7	...........	-327.63
	200	4.02	4.00174E-001	-4.54928E-009	0.00000E+000	4.00000E-001	6.40076E-004	7	...........	-327.63
	208	4.18	4.16112E-001	-4.42845E-009	0.00000E+000	4.16000E-001	6.33410E-004	7	...........	-327.63
	216	4.34	4.32080E-001	-4.27011E-009	0.00000E+000	4.32000E-001	6.21743E-004	7	...........	-327.63
	224	4.5	4.48034E-001	-4.15344E-009	0.00000E+000	4.48000E-001	6.57576E-004	7	...........	-327.63
	232	4.66	4.63986E-001	-4.07010E-009	0.00000E+000	4.64000E-001	6.41743E-004	7	...........	-327.63
	240	4.82	4.79959E-001	-4.14094E-009	0.00000E+000	4.80000E-001	6.37576E-004	7	...........	-327.63
	248	4.98	4.95918E-001	-3.96176E-009	0.00000E+000	4.96000E-001	6.36743E-004	7	...........	-327.63
	256	5.14	4.87901E-001	-3.67008E-009	0.00000E+000	4.88000E-001	6.39243E-004	7	...........	-327.63
	264	5.3	4.71897E-001	-3.74925E-009	0.00000E+000	4.72000E-001	6.40910E-004	7	...........	-327.63
	272	5.46	4.55921E-001	-3.77009E-009	0.00000E+000	4.56000E-001	6.47576E-004	7	...........	-327.63
	280	5.62	4.39913E-001	-3.55758E-009	0.00000E+000	4.40000E-001	6.28410E-004	7	...........	-327.63
	288	5.78	4.23923E-001	-3.17423E-009	0.00000E+000	4.24000E-001	6.46743E-004	7	...........	-327.63
	296	5.94	4.07933E-001	-3.18257E-009	0.00000E+000	4.08000E-001	6.35076E-004	7	...........	-327.63
	304	6.1	3.91914E-001	-3.08256E-009	0.00000E+000	3.92000E-001	6.39243E-004	7	...........	-327.63
	312	6.26	3.75907E-001	-2.99089E-009	0.00000E+000	3.76000E-001	6.53410E-004	7	...........	-327.63
	320	6.42	3.59894E-001	-2.87422E-009	0.00000E+000	3.60000E-001	6.46743E-004	7	...........	-327.63
	328	6.58	3.43902E-001	-2.73672E-009	0.00000E+000	3.44000E-001	6.48410E-004	7	...........	-327.63
	336	6.74	3.27908E-001	-2.60338E-009	0.00000E+000	3.28000E-001	6.46743E-004	7	...........	-327.63
	344	6.9	3.11860E-001	-2.22420E-009	0.00000E+000	3.12000E-001	6.48410E-004	7	...........	-327.63
	352	7.06	2.95869E-001	-1.93252E-009	0.00000E+000	2.96000E-001	6.35910E-004	7	...........	-327.63
	360	7.22	2.79870E-001	-1.62834E-009	0.00000E+000	2.80000E-001	6.37576E-004	7	...........	-327.63
	368	7.38	2.63841E-001	-1.42833E-009	0.00000E+000	2.64000E-001	6.40076E-004	7	...........	-327.63
	376	7.54	2.47821E-001	-1.05749E-009	0.00000E+000	2.48000E-001	6.56743E-004	7	...........	-327.63
	384	7.7	2.31776E-001	-6.11638E-010	0.00000E+000	2.32000E-001	6.45076E-004	7	...........	-327.63
	392	7.86	2.15747E-001	-2.24123E-010	0.00000E+000	2.16000E-001	6.20076E-004	7	...........	-327.63
[...]
	2895	57.92	-2.12289E-001	1.76224E-008	0.00000E+000	-2.10000E-001	3.40910E-004	7	...........	-327.63
	2898	57.98	-2.06277E-001	1.79557E-008	0.00000E+000	-2.04000E-001	3.40076E-004	7	...........	-327.63
	2901	58.04	-2.00319E-001	1.79141E-008	0.00000E+000	-1.98000E-001	3.53410E-004	7	...........	-327.63
	2904	58.1	-1.94327E-001	1.79599E-008	0.00000E+000	-1.92000E-001	3.38410E-004	7	...........	-327.63
	2907	58.16	-1.88327E-001	1.79307E-008	0.00000E+000	-1.86000E-001	3.26743E-004	7	...........	-327.63
	2910	58.22	-1.82325E-001	1.78724E-008	0.00000E+000	-1.80000E-001	3.51743E-004	7	...........	-327.63
	2913	58.28	-1.76338E-001	1.79016E-008	0.00000E+000	-1.74000E-001	3.38410E-004	7	...........	-327.63
	2916	58.34	-1.70343E-001	1.81349E-008	0.00000E+000	-1.68000E-001	3.49243E-004	7	...........	-327.63
	2919	58.4	-1.64365E-001	1.82224E-008	0.00000E+000	-1.62000E-001	3.52576E-004	7	...........	-327.63
	2922	58.46	-1.58351E-001	1.81682E-008	0.00000E+000	-1.56000E-001	3.41743E-004	7	...........	-327.63
	2925	58.52	-1.52385E-001	1.80266E-008	0.00000E+000	-1.50000E-001	3.57576E-004	7	...........	-327.63
	2928	58.58	-1.46384E-001	1.78641E-008	0.00000E+000	-1.44000E-001	3.60076E-004	7	...........	-327.63
	2931	58.64	-1.40405E-001	1.80474E-008	0.00000E+000	-1.38000E-001	3.54243E-004	7	...........	-327.63
	2934	58.7	-1.34400E-001	1.79807E-008	0.00000E+000	-1.32000E-001	3.45076E-004	7	...........	-327.63
	2937	58.76	-1.28402E-001	1.80516E-008	0.00000E+000	-1.26000E-001	3.63410E-004	7	...........	-327.63
	2940	58.82	-1.22427E-001	1.78182E-008	0.00000E+000	-1.20000E-001	3.40076E-004	7	...........	-327.63
	2943	58.88	-1.16424E-001	1.78557E-008	0.00000E+000	-1.14000E-001	3.38410E-004	7	...........	-327.63
	2946	58.94	-1.10434E-001	1.79516E-008	0.00000E+000	-1.08000E-001	3.56743E-004	7	...........	-327.63
	2949	59	-1.04429E-001	1.79474E-008	0.00000E+000	-1.02000E-001	3.46743E-004	7	...........	-327.63
	2952	59.06	-9.84603E-002	1.80016E-008	0.00000E+000	-9.60000E-002	3.35910E-004	7	...........	-327.63
	2955	59.12	-9.24632E-002	1.77932E-008	0.00000E+000	-9.00000E-002	3.50076E-004	7	...........	-327.63
	2958	59.18	-8.64932E-002	1.77390E-008	0.00000E+000	-8.40000E-002	3.58410E-004	7	...........	-327.63
	2961	59.24	-8.04774E-002	1.77557E-008	0.00000E+000	-7.80000E-002	3.51743E-004	7	...........	-327.63
	2964	59.3	-7.44887E-002	1.79474E-008	0.00000E+000	-7.20000E-002	3.35076E-004	7	...........	-327.63
	2967	59.36	-6.84999E-002	1.79641E-008	0.00000E+000	-6.60000E-002	3.57576E-004	7	...........	-327.63
	2970	59.42	-6.25207E-002	1.80474E-008	0.00000E+000	-6.00000E-002	3.54243E-004	7	...........	-327.63
	2973	59.48	-5.65062E-002	1.81182E-008	0.00000E+000	-5.40000E-002	3.47576E-004	7	...........	-327.63
	2976	59.54	-5.05524E-002	1.81891E-008	0.00000E+000	-4.80000E-002	3.32576E-004	7	...........	-327.63
	2979	59.6	-4.45391E-002	1.82266E-008	0.00000E+000	-4.20000E-002	3.50076E-004	7	...........	-327.63
	2982	59.66	-3.85482E-002	1.80974E-008	0.00000E+000	-3.60000E-002	3.39243E-004	7	...........	-327.63
	2985	59.72	-3.25545E-002	1.82557E-008	0.00000E+000	-3.00000E-002	3.63410E-004	7	...........	-327.63
	2988	59.78	-2.65532E-002	1.82266E-008	0.00000E+000	-2.40000E-002	3.51743E-004	7	...........	-327.63
	2991	59.84	-2.05766E-002	1.80474E-008	0.00000E+000	-1.80000E-002	3.32576E-004	7	...........	-327.63
	2994	59.9	-1.45887E-002	1.79724E-008	0.00000E+000	-1.20000E-002	3.45910E-004	7	...........	-327.63
	2997	59.96	-8.59158E-003	1.81891E-008	0.00000E+000	-6.00000E-003	3.61743E-004	7	...........	-327.63
	3000	60.02	-2.59699E-003	1.81557E-008	0.00000E+000	0.00000E+000	3.36743E-004	7	...........	-327.63

File: CV_smallGrid_noBuffer_1.DTA
EXPLAIN
TAG	CV
TITLE	LABEL	Cyclic Voltammetry	Test &Identifier
DATE	LABEL	5-12-2022	Date
TIME	LABEL	13:09:27	Time
NOTES	NOTES	1	&Notes...

PSTAT	PSTAT	REF3000-20110	Potentiostat
VINIT	POTEN	0.00000E+000	F	Initial &E (V)
VLIMIT1	POTEN	5.00000E-001	F	Scan Limit &1 (V)
VLIMIT2	POTEN	-5.00000E-001	F	Scan Limit &2 (V)
VFINAL	POTEN	0.00000E+000	F	Final &E (V)
SCANRATE	QUANT	9.99998E+001	&Scan Rate (mV/s)
STEPSIZE	QUANT	2.00000E+000	St&ep Size (mV)
CYCLES	IQUANT	3	C&ycles (#)
IMODE	SELECTOR	0	I/E Range &Mode
IRANGE	QUANT	3.00000E-001	&Max Current (mA)
AREA	QUANT	1.00000E+000	Electrode &Area (cm^2)
ELECTRODETYPE	SELECTOR	0	Electrode Type
STRIPPING	TOGGLE	F	Used for Stripping
CONDIT	TWOPARAM	F	1.50000E+001	0.00000E+000	Conditionin&g	Time(s)	E(V)
DELAY	TWOPARAM	F	3.00000E+001	0.00000E+000	Init. De&lay	Time(s)	Stab.(mV/s)
EQDELAY	QUANT	0.00000E+000	Equil. &Time (s)
IRCOMP	SELECTOR	0	IRCom&p
PFCOR	QUANT	5.00000E+001	PF Corr. (ohm)
SAMPLINGMODE	SELECTOR	1	Sampling &Mode
EOC	QUANT	0	Open Circuit (V)
PSTATMODEL	IQUANT	5	Pstat Model
PSTATSECTION	LABEL	REF3000-20110	Pstat Section
PSTATSERIALNO	LABEL	20110	Pstat Serial Number
CTRLMODE	IQUANT	1	Control Mode
ELECTROMETER	IQUANT	0	RE=0 or CS=1
IESTAB	IQUANT	2	I/E Stability
CASPEED	IQUANT	4	Control Amp Speed
CONVENTION	IQUANT	1	Current Convention
ICHRANGE	IQUANT	2	Ich Range
ICHRANGEMODE	TOGGLE	F	Ich Auto Range
ICHOFFSETENABLE	TOGGLE	F	Ich Offset Enable
ICHOFFSET	QUANT	0	Ich Offset (V)
ICHFILTER	IQUANT	2	Ich Filter
VCHRANGE	IQUANT	2	Vch Range
VCHRANGEMODE	TOGGLE	F	Vch Auto Range
VCHOFFSETENABLE	TOGGLE	F	Vch Offset Enable
VCHOFFSET	QUANT	0	Vch Offset (V)
VCHFILTER	IQUANT	2	Vch Filter
ACHRANGE	IQUANT	2	Ach Range
ACHOFFSETENABLE	TOGGLE	F	Ach Offset Enable
ACHOFFSET	QUANT	0	Ach Offset (V)
ACHFILTER	IQUANT	1	Ach Filter
IERANGELOWERLIMIT	IQUANT	2	I/E Range Lower Limit
IERANGEMODE	TOGGLE	T	I/E AutoRange
IERANGE	IQUANT	9	I/E Range
POSFEEDENABLE	TOGGLE	F	Positive Feedback IR Comp
POSFEEDRESISTANCE	QUANT	0	Positive Feedback Resistance (ohm)
ACHSELECT	IQUANT	4	Ach Select
SENSECABLEID	IQUANT	14	Sense Cable ID
PWRCABLEID	IQUANT	7	Power Cable ID
DCCALDATE	LABEL	8/9/2022	DC Calibration Date
ACCALDATE	LABEL	8/9/2022	AC Calibration Date
THERMOSELECT	IQUANT	1	Thermo Select
FRAMEWORKVERSION	LABEL	7.9.0	Framework Version
INSTRUMENTVERSION	LABEL	4.60	Instrument Version
COMPLIANCEVOLTAGE	IQUANT	0	Compliance Voltage
CURVE1	TABLE
	Pt	T	Vf	Im	Vu	Sig	Ach	IERange	Over	Temp
	#	s	V vs. Ref.	A	V	V	V	#	bits	deg C
	0	0.02	-4.40686E-004	-1.31246E-007	0.00000E+000	0.00000E+000	7.81743E-004	9	...........	-327.63
	8	0.18	1.55234E-002	1.74682E-008	0.00000E+000	1.60000E-002	7.78410E-004	7	...........	-327.63
	16	0.34	3.14834E-002	1.74765E-008	0.00000E+000	3.20000E-002	7.95076E-004	7	...........	-327.63
	24	0.5	4.73397E-002	1.76682E-008	0.00000E+000	4.80000E-002	8.06743E-004	7	...........	-327.63
	32	0.66	6.31959E-002	1.74224E-008	0.00000E+000	6.40000E-002	8.05076E-004	7	...........	-327.63
	40	0.82	7.86630E-002	1.72932E-008	0.00000E+000	8.00000E-002	8.01743E-004	7	...........	-327.63
	48	0.98	9.44742E-002	1.72974E-008	0.00000E+000	9.60000E-002	7.93410E-004	7	...........	-327.63
	56	1.14	1.10829E-001	1.75515E-008	0.00000E+000	1.12000E-001	7.80076E-004	7	...........	-327.63
	64	1.3	1.26885E-001	1.77390E-008	0.00000E+000	1.28000E-001	7.88410E-004	7	...........	-327.63
	72	1.46	1.42704E-001	1.77640E-008	0.00000E+000	1.44000E-001	7.81743E-004	7	...........	-327.63
	80	1.62	1.58618E-001	1.79099E-008	0.00000E+000	1.60000E-001	8.06743E-004	7	...........	-327.63
	88	1.78	1.74449E-001	1.80224E-008	0.00000E+000	1.76000E-001	8.05076E-004	7	...........	-327.63
	96	1.94	1.90332E-001	1.75724E-008	0.00000E+000	1.92000E-001	7.93410E-004	7	...........	-327.63
	104	2.1	2.06240E-001	1.79141E-008	0.00000E+000	2.08000E-001	7.90076E-004	7	...........	-327.63
	112	2.26	2.21853E-001	1.81016E-008	0.00000E+000	2.24000E-001	7.93410E-004	7	...........	-327.63
	120	2.42	2.38110E-001	1.78599E-008	0.00000E+000	2.40000E-001	8.00076E-004	7	...........	-327.63
	128	2.58	2.54206E-001	1.81807E-008	0.00000E+000	2.56000E-001	8.10076E-004	7	...........	-327.63
	136	2.74	2.69998E-001	1.80432E-008	0.00000E+000	2.72000E-001	7.66743E-004	7	...........	-327.63
	144	2.9	2.86007E-001	1.80766E-008	0.00000E+000	2.88000E-001	8.16743E-004	7	...........	-327.63
	152	3.06	3.01926E-001	1.81016E-008	0.00000E+000	3.04000E-001	8.11743E-004	7	...........	-327.63
	160	3.22	3.17861E-001	1.82266E-008	0.00000E+000	3.20000E-001	7.91743E-004	7	...........	-327.63
	168	3.38	3.33821E-001	1.80599E-008	0.00000E+000	3.36000E-001	8.00076E-004	7	...........	-327.63
	176	3.54	3.49691E-001	1.81391E-008	0.00000E+000	3.52000E-001	8.08410E-004	7	...........	-327.63
	184	3.7	3.65312E-001	1.81682E-008	0.00000E+000	3.68000E-001	7.91743E-004	7	...........	-327.63
	192	3.86	3.81244E-001	1.81932E-008	0.00000E+000	3.84000E-001	7.81743E-004	7	...........	-327.63
	200	4.02	3.97254E-001	1.79891E-008	0.00000E+000	4.00000E-001	8.10076E-004	7	...........	-327.63
	208	4.18	4.13506E-001	1.81557E-008	0.00000E+000	4.16000E-001	7.93410E-004	7	...........	-327.63
	216	4.34	4.29230E-001	1.81182E-008	0.00000E+000	4.32000E-001	7.86743E-004	7	...........	-327.63
	224	4.5	4.45213E-001	1.79307E-008	0.00000E+000	4.48000E-001	8.00076E-004	7	...........	-327.63
	232	4.66	4.61531E-001	1.82057E-008	0.00000E+000	4.64000E-001	8.11743E-004	7	...........	-327.63
	240	4.82	4.77143E-001	1.78599E-008	0.00000E+000	4.80000E-001	8.03410E-004	7	...........	-327.63
	248	4.98	4.93141E-001	1.81016E-008	0.00000E+000	4.96000E-001	8.03410E-004	7	...........	-327.63
	256	5.14	4.85501E-001	1.81766E-008	0.00000E+000	4.88000E-001	7.96743E-004	7	...........	-327.63
	264	5.3	4.69218E-001	1.81141E-008	0.00000E+000	4.72000E-001	8.11743E-004	7	...........	-327.63
	272	5.46	4.53189E-001	1.80057E-008	0.00000E+000	4.56000E-001	8.05076E-004	7	...........	-327.63
	280	5.62	4.37531E-001	1.80224E-008	0.00000E+000	4.40000E-001	7.63410E-004	7	...........	-327.63
	288	5.78	4.21277E-001	1.78349E-008	0.00000E+000	4.24000E-001	7.88410E-004	7	...........	-327.63
	296	5.94	4.05293E-001	1.77765E-008	0.00000E+000	4.08000E-001	8.05076E-004	7	...........	-327.63
	304	6.1	3.89620E-001	1.76599E-008	0.00000E+000	3.92000E-001	7.95076E-004	7	...........	-327.63
	312	6.26	3.73325E-001	1.76890E-008	0.00000E+000	3.76000E-001	8.06743E-004	7	...........	-327.63
	320	6.42	3.57414E-001	1.76057E-008	0.00000E+000	3.60000E-001	7.93410E-004	7	...........	-327.63
	328	6.58	3.41590E-001	1.78724E-008	0.00000E+000	3.44000E-001	7.85076E-004	7	...........	-327.63
	336	6.74	3.25436E-001	1.78057E-008	0.00000E+000	3.28000E-001	7.92576E-004	7	...........	-327.63
	344	6.9	3.09467E-001	1.76057E-008	0.00000E+000	3.12000E-001	8.20076E-004	7	...........	-327.63
	352	7.06	2.93711E-001	1.77974E-008	0.00000E+000	2.96000E-001	8.15076E-004	7	...........	-327.63
	360	7.22	2.77738E-001	1.77015E-008	0.00000E+000	2.80000E-001	8.00076E-004	7	...........	-327.63
	368	7.38	2.61748E-001	1.77724E-008	0.00000E+000	2.64000E-001	7.80076E-004	7	...........	-327.63
	376	7.54	2.45711E-001	1.77640E-008	0.00000E+000	2.48000E-001	8.01743E-004	7	...........	-327.63
	384	7.7	2.29820E-001	1.76557E-008	0.00000E+000	2.32000E-001	8.06743E-004	7	...........	-327.63
	392	7.86	2.13817E-001	1.76807E-008	0.00000E+000	2.16000E-001	7.98410E-004	7	...........	-327.63
[...]
	2895	57.92	-2.12387E-001	1.98100E-008	0.00000E+000	-2.10000E-001	4.95076E-004	7	...........	-327.63
	2898	57.98	-2.06339E-001	2.00225E-008	0.00000E+000	-2.04000E-001	5.30076E-004	7	...........	-327.63
	2901	58.04	-2.00369E-001	2.00808E-008	0.00000E+000	-1.98000E-001	5.18410E-004	7	...........	-327.63
	2904	58.1	-1.94351E-001	1.99641E-008	0.00000E+000	-1.92000E-001	5.33410E-004	7	...........	-327.63
	2907	58.16	-1.88420E-001	1.98933E-008	0.00000E+000	-1.86000E-001	5.03410E-004	7	...........	-327.63
	2910	58.22	-1.82394E-001	1.97016E-008	0.00000E+000	-1.80000E-001	5.25076E-004	7	...........	-327.63
	2913	58.28	-1.76385E-001	1.96683E-008	0.00000E+000	-1.74000E-001	5.00076E-004	7	...........	-327.63
	2916	58.34	-1.70405E-001	1.98141E-008	0.00000E+000	-1.68000E-001	5.05076E-004	7	...........	-327.63
	2919	58.4	-1.64488E-001	1.97516E-008	0.00000E+000	-1.62000E-001	5.15076E-004	7	...........	-327.63
	2922	58.46	-1.58427E-001	1.97225E-008	0.00000E+000	-1.56000E-001	5.38410E-004	7	...........	-327.63
	2925	58.52	-1.52430E-001	1.96850E-008	0.00000E+000	-1.50000E-001	4.68410E-004	7	...........	-327.63
	2928	58.58	-1.46424E-001	1.98975E-008	0.00000E+000	-1.44000E-001	5.26743E-004	7	...........	-327.63
	2931	58.64	-1.40447E-001	1.97891E-008	0.00000E+000	-1.38000E-001	5.08410E-004	7	...........	-327.63
	2934	58.7	-1.34492E-001	1.97433E-008	0.00000E+000	-1.32000E-001	5.25076E-004	7	...........	-327.63
	2937	58.76	-1.28468E-001	1.96391E-008	0.00000E+000	-1.26000E-001	5.31743E-004	7	...........	-327.63
	2940	58.82	-1.22474E-001	1.96266E-008	0.00000E+000	-1.20000E-001	5.40076E-004	7	...........	-327.63
	2943	58.88	-1.16445E-001	1.95558E-008	0.00000E+000	-1.14000E-001	5.38410E-004	7	...........	-327.63
	2946	58.94	-1.10529E-001	1.95099E-008	0.00000E+000	-1.08000E-001	5.00076E-004	7	...........	-327.63
	2949	59	-1.04462E-001	1.95349E-008	0.00000E+000	-1.02000E-001	5.08410E-004	7	...........	-327.63
	2952	59.06	-9.85045E-002	1.96349E-008	0.00000E+000	-9.60000E-002	5.06743E-004	7	...........	-327.63
	2955	59.12	-9.24937E-002	1.96141E-008	0.00000E+000	-9.00000E-002	5.06743E-004	7	...........	-327.63
	2958	59.18	-8.65949E-002	1.97475E-008	0.00000E+000	-8.40000E-002	4.91743E-004	7	...........	-327.63
	2961	59.24	-8.05462E-002	1.96808E-008	0.00000E+000	-7.80000E-002	5.06743E-004	7	...........	-327.63
	2964	59.3	-7.45428E-002	1.96683E-008	0.00000E+000	-7.20000E-002	5.16743E-004	7	...........	-327.63
	2967	59.36	-6.85245E-002	1.96850E-008	0.00000E+000	-6.60000E-002	5.21743E-004	7	...........	-327.63
	2970	59.42	-6.26324E-002	1.97225E-008	0.00000E+000	-6.00000E-002	4.91743E-004	7	...........	-327.63
	2973	59.48	-5.66020E-002	1.97141E-008	0.00000E+000	-5.40000E-002	5.21743E-004	7	...........	-327.63
	2976	59.54	-5.05749E-002	1.96516E-008	0.00000E+000	-4.80000E-002	4.96743E-004	7	...........	-327.63
	2979	59.6	-4.45649E-002	1.96266E-008	0.00000E+000	-4.20000E-002	5.13410E-004	7	...........	-327.63
	2982	59.66	-3.85616E-002	1.96808E-008	0.00000E+000	-3.60000E-002	5.20076E-004	7	...........	-327.63
	2985	59.72	-3.26682E-002	1.96433E-008	0.00000E+000	-3.00000E-002	4.93410E-004	7	...........	-327.63
	2988	59.78	-2.66162E-002	1.96641E-008	0.00000E+000	-2.40000E-002	5.51743E-004	7	...........	-327.63
	2991	59.84	-2.06120E-002	1.98475E-008	0.00000E+000	-1.80000E-002	5.25076E-004	7	...........	-327.63
	2994	59.9	-1.46070E-002	1.98308E-008	0.00000E+000	-1.20000E-002	5.01743E-004	7	...........	-327.63
	2997	59.96	-8.72616E-003	1.98100E-008	0.00000E+000	-6.00000E-003	5.11743E-004	7	...........	-327.63
	3000	60.02	-2.62866E-003	1.96850E-008	0.00000E+000	0.00000E+000	5.23410E-004	7	...........	-327.63