Folder: iongate/Gamry (part 3)

File: CV_fullWindow_openCircuit.DTA
EXPLAIN
TAG	CV
TITLE	LABEL	Cyclic Voltammetry	Test &Identifier
DATE	LABEL	5-12-2022	Date
TIME	LABEL	13:27:15	Time
NOTES	NOTES	1	&Notes...

PSTAT	PSTAT	REF3000-20110	Potentiostat
VINIT	POTEN	0.00000E+000	F	Initial &E (V)
VLIMIT1	POTEN	5.00000E-001	F	Scan Limit &1 (V)
VLIMIT2	POTEN	-5.00000E-001	F	Scan Limit &2 (V)
VFINAL	POTEN	0.00000E+000	F	Final &E (V)
SCANRATE	QUANT	9.99998E+001	&Scan Rate (mV/s)
STEPSIZE	QUANT	2.00000E+000	St&ep Size (mV)
CYCLES	IQUANT	3	C&ycles (#)
IMODE	SELECTOR	0	I/E Range &Mode
IRANGE	QUANT	3.00000E-001	&Max Current (mA)
AREA	QUANT	1.00000E+000	Electrode &Area (cm^2)
ELECTRODETYPE	SELECTOR	0	Electrode Type
STRIPPING	TOGGLE	F	Used for Stripping
CONDIT	TWOPARAM	F	1.50000E+001	0.00000E+000	Conditionin&g	Time(s)	E(V)
DELAY	TWOPARAM	F	3.00000E+001	0.00000E+000	Init. De&lay	Time(s)	Stab.(mV/s)
EQDELAY	QUANT	0.00000E+000	Equil. &Time (s)
IRCOMP	SELECTOR	0	IRCom&p
PFCOR	QUANT	5.00000E+001	PF Corr. (ohm)
SAMPLINGMODE	SELECTOR	1	Sampling &Mode
EOC	QUANT	0	Open Circuit (V)
PSTATMODEL	IQUANT	5	Pstat Model
PSTATSECTION	LABEL	REF3000-20110	Pstat Section
PSTATSERIALNO	LABEL	20110	Pstat Serial Number
CTRLMODE	IQUANT	1	Control Mode
ELECTROMETER	IQUANT	0	RE=0 or CS=1
IESTAB	IQUANT	2	I/E Stability
CASPEED	IQUANT	4	Control Amp Speed
CONVENTION	IQUANT	1	Current Convention
ICHRANGE	IQUANT	2	Ich Range
ICHRANGEMODE	TOGGLE	F	Ich Auto Range
ICHOFFSETENABLE	TOGGLE	F	Ich Offset Enable
ICHOFFSET	QUANT	0	Ich Offset (V)
ICHFILTER	IQUANT	2	Ich Filter
VCHRANGE	IQUANT	2	Vch Range
VCHRANGEMODE	TOGGLE	F	Vch Auto Range
VCHOFFSETENABLE	TOGGLE	F	Vch Offset Enable
VCHOFFSET	QUANT	0	Vch Offset (V)
VCHFILTER	IQUANT	2	Vch Filter
ACHRANGE	IQUANT	2	Ach Range
ACHOFFSETENABLE	TOGGLE	F	Ach Offset Enable
ACHOFFSET	QUANT	0	Ach Offset (V)
ACHFILTER	IQUANT	1	Ach Filter
IERANGELOWERLIMIT	IQUANT	2	I/E Range Lower Limit
IERANGEMODE	TOGGLE	T	I/E AutoRange
IERANGE	IQUANT	9	I/E Range
POSFEEDENABLE	TOGGLE	F	Positive Feedback IR Comp
POSFEEDRESISTANCE	QUANT	0	Positive Feedback Resistance (ohm)
ACHSELECT	IQUANT	4	Ach Select
SENSECABLEID	IQUANT	14	Sense Cable ID
PWRCABLEID	IQUANT	7	Power Cable ID
DCCALDATE	LABEL	8/9/2022	DC Calibration Date
ACCALDATE	LABEL	8/9/2022	AC Calibration Date
THERMOSELECT	IQUANT	1	Thermo Select
FRAMEWORKVERSION	LABEL	7.9.0	Framework Version
INSTRUMENTVERSION	LABEL	4.60	Instrument Version
COMPLIANCEVOLTAGE	IQUANT	0	Compliance Voltage
CURVE1	TABLE
	Pt	T	Vf	Im	Vu	Sig	Ach	IERange	Over	Temp
	#	s	V vs. Ref.	A	V	V	V	#	bits	deg C
	0	0.02	3.38897E-004	-5.18246E-008	0.00000E+000	0.00000E+000	7.18410E-004	9	...........	-327.63
	8	0.18	1.63388E-002	-7.94978E-010	0.00000E+000	1.60000E-002	7.00076E-004	7	...........	-327.63
	16	0.34	3.22563E-002	-4.53299E-010	0.00000E+000	3.20000E-002	7.10910E-004	7	...........	-327.63
	24	0.5	4.81063E-002	-1.61621E-010	0.00000E+000	4.80000E-002	7.02576E-004	7	...........	-327.63
	32	0.66	6.40772E-002	-5.32836E-011	0.00000E+000	6.40000E-002	7.01743E-004	7	...........	-327.63
	40	0.82	7.99388E-002	3.34231E-010	0.00000E+000	8.00000E-002	6.97576E-004	7	...........	-327.63
	48	0.98	9.58059E-002	6.46742E-010	0.00000E+000	9.60000E-002	7.05076E-004	7	...........	-327.63
	56	1.14	1.11708E-001	1.02176E-009	0.00000E+000	1.12000E-001	7.07576E-004	7	...........	-327.63
	64	1.3	1.04789E-001	1.25927E-009	0.00000E+000	1.28000E-001	7.05910E-004	7	..ch.......	-327.63
	72	1.46	1.21375E-001	1.26760E-009	0.00000E+000	1.44000E-001	6.96743E-004	7	..ch.......	-327.63
	80	1.62	1.14353E-001	1.67595E-009	0.00000E+000	1.60000E-001	7.23410E-004	7	..ch.......	-327.63
	88	1.78	1.04973E-001	1.99263E-009	0.00000E+000	1.76000E-001	7.15076E-004	7	..ch.......	-327.63
	96	1.94	1.91367E-001	2.09680E-009	0.00000E+000	1.92000E-001	7.09243E-004	7	...........	-327.63
	104	2.1	2.07310E-001	2.50515E-009	0.00000E+000	2.08000E-001	7.05910E-004	7	...........	-327.63
	112	2.26	2.23238E-001	2.75932E-009	0.00000E+000	2.24000E-001	6.96743E-004	7	...........	-327.63
	120	2.42	2.39151E-001	3.18850E-009	0.00000E+000	2.40000E-001	7.00910E-004	7	...........	-327.63
	128	2.58	2.55062E-001	3.66352E-009	0.00000E+000	2.56000E-001	7.04243E-004	7	...........	-327.63
	136	2.74	2.70962E-001	3.87603E-009	0.00000E+000	2.72000E-001	7.06743E-004	7	...........	-327.63
	144	2.9	2.86889E-001	4.36771E-009	0.00000E+000	2.88000E-001	7.15910E-004	7	...........	-327.63
	152	3.06	3.02813E-001	4.65106E-009	0.00000E+000	3.04000E-001	7.15910E-004	7	...........	-327.63
	160	3.22	3.18703E-001	5.08441E-009	0.00000E+000	3.20000E-001	6.95076E-004	7	...........	-327.63
	168	3.38	3.34643E-001	5.67610E-009	0.00000E+000	3.36000E-001	7.08410E-004	7	...........	-327.63
	176	3.54	3.50599E-001	5.82610E-009	0.00000E+000	3.52000E-001	7.12576E-004	7	...........	-327.63
	184	3.7	3.66500E-001	6.05528E-009	0.00000E+000	3.68000E-001	6.98410E-004	7	...........	-327.63
	192	3.86	3.82439E-001	6.33029E-009	0.00000E+000	3.84000E-001	7.05076E-004	7	...........	-327.63
	200	4.02	3.98344E-001	6.51363E-009	0.00000E+000	4.00000E-001	7.02576E-004	7	...........	-327.63
	208	4.18	4.14258E-001	6.80531E-009	0.00000E+000	4.16000E-001	7.05910E-004	7	...........	-327.63
	216	4.34	4.30187E-001	7.09282E-009	0.00000E+000	4.32000E-001	7.07576E-004	7	...........	-327.63
	224	4.5	4.46112E-001	7.54700E-009	0.00000E+000	4.48000E-001	7.15076E-004	7	...........	-327.63
	232	4.66	4.61998E-001	7.89701E-009	0.00000E+000	4.64000E-001	7.14243E-004	7	...........	-327.63
	240	4.82	4.77930E-001	8.28869E-009	0.00000E+000	4.80000E-001	7.08410E-004	7	...........	-327.63
	248	4.98	4.93838E-001	8.55954E-009	0.00000E+000	4.96000E-001	6.89243E-004	7	...........	-327.63
	256	5.14	4.85788E-001	9.11372E-009	0.00000E+000	4.88000E-001	7.09243E-004	7	...........	-327.63
	264	5.3	4.69755E-001	9.30540E-009	0.00000E+000	4.72000E-001	7.05076E-004	7	...........	-327.63
	272	5.46	4.53728E-001	9.53874E-009	0.00000E+000	4.56000E-001	7.04243E-004	7	...........	-327.63
	280	5.62	4.37693E-001	9.65125E-009	0.00000E+000	4.40000E-001	6.93410E-004	7	...........	-327.63
	288	5.78	4.21670E-001	9.87625E-009	0.00000E+000	4.24000E-001	7.03410E-004	7	...........	-327.63
	296	5.94	4.05681E-001	1.03179E-008	0.00000E+000	4.08000E-001	7.23410E-004	7	...........	-327.63
	304	6.1	3.89666E-001	1.05221E-008	0.00000E+000	3.92000E-001	7.03410E-004	7	...........	-327.63
	312	6.26	3.73635E-001	1.07180E-008	0.00000E+000	3.76000E-001	7.17576E-004	7	...........	-327.63
	320	6.42	3.57648E-001	1.12096E-008	0.00000E+000	3.60000E-001	7.08410E-004	7	...........	-327.63
	328	6.58	3.41626E-001	1.13430E-008	0.00000E+000	3.44000E-001	6.95076E-004	7	...........	-327.63
	336	6.74	3.25624E-001	1.13555E-008	0.00000E+000	3.28000E-001	7.10076E-004	7	...........	-327.63
	344	6.9	3.09595E-001	1.17222E-008	0.00000E+000	3.12000E-001	6.77576E-004	7	...........	-327.63
	352	7.06	2.93585E-001	1.15680E-008	0.00000E+000	2.96000E-001	6.96743E-004	7	...........	-327.63
	360	7.22	2.77570E-001	1.20055E-008	0.00000E+000	2.80000E-001	7.09243E-004	7	...........	-327.63
	368	7.38	2.61549E-001	1.21930E-008	0.00000E+000	2.64000E-001	7.10910E-004	7	...........	-327.63
	376	7.54	2.45547E-001	1.24305E-008	0.00000E+000	2.48000E-001	7.03410E-004	7	...........	-327.63
	384	7.7	2.29550E-001	1.24013E-008	0.00000E+000	2.32000E-001	7.15910E-004	7	...........	-327.63
	392	7.86	2.13531E-001	1.27597E-008	0.00000E+000	2.16000E-001	7.10910E-004	7	...........	-327.63
[...]
	2895	57.92	-2.11982E-001	1.55056E-008	0.00000E+000	-2.10000E-001	4.10076E-004	7	...........	-327.63
	2898	57.98	-2.05983E-001	1.55890E-008	0.00000E+000	-2.04000E-001	4.23410E-004	7	...........	-327.63
	2901	58.04	-2.00016E-001	1.53765E-008	0.00000E+000	-1.98000E-001	4.12576E-004	7	...........	-327.63
	2904	58.1	-1.94019E-001	1.53390E-008	0.00000E+000	-1.92000E-001	4.23410E-004	7	...........	-327.63
	2907	58.16	-1.88023E-001	1.54140E-008	0.00000E+000	-1.86000E-001	4.16743E-004	7	...........	-327.63
	2910	58.22	-1.82012E-001	1.54306E-008	0.00000E+000	-1.80000E-001	4.32576E-004	7	...........	-327.63
	2913	58.28	-1.76019E-001	1.54556E-008	0.00000E+000	-1.74000E-001	4.09243E-004	7	...........	-327.63
	2916	58.34	-1.70027E-001	1.54556E-008	0.00000E+000	-1.68000E-001	4.30910E-004	7	...........	-327.63
	2919	58.4	-1.64057E-001	1.54098E-008	0.00000E+000	-1.62000E-001	4.28410E-004	7	...........	-327.63
	2922	58.46	-1.58034E-001	1.51056E-008	0.00000E+000	-1.56000E-001	4.41743E-004	7	...........	-327.63
	2925	58.52	-1.52057E-001	1.50639E-008	0.00000E+000	-1.50000E-001	4.26743E-004	7	...........	-327.63
	2928	58.58	-1.46059E-001	1.51514E-008	0.00000E+000	-1.44000E-001	4.40076E-004	7	...........	-327.63
	2931	58.64	-1.40073E-001	1.50556E-008	0.00000E+000	-1.38000E-001	4.22576E-004	7	...........	-327.63
	2934	58.7	-1.34061E-001	1.49681E-008	0.00000E+000	-1.32000E-001	4.28410E-004	7	...........	-327.63
	2937	58.76	-1.28080E-001	1.52515E-008	0.00000E+000	-1.26000E-001	4.09243E-004	7	...........	-327.63
	2940	58.82	-1.22092E-001	1.50264E-008	0.00000E+000	-1.20000E-001	4.25076E-004	7	...........	-327.63
	2943	58.88	-1.16089E-001	1.50264E-008	0.00000E+000	-1.14000E-001	4.24243E-004	7	...........	-327.63
	2946	58.94	-1.10097E-001	1.50473E-008	0.00000E+000	-1.08000E-001	4.29243E-004	7	...........	-327.63
	2949	59	-1.04089E-001	1.50098E-008	0.00000E+000	-1.02000E-001	4.09243E-004	7	...........	-327.63
	2952	59.06	-9.81128E-002	1.49806E-008	0.00000E+000	-9.60000E-002	4.32576E-004	7	...........	-327.63
	2955	59.12	-9.21220E-002	1.49014E-008	0.00000E+000	-9.00000E-002	4.01743E-004	7	...........	-327.63
	2958	59.18	-8.61337E-002	1.49598E-008	0.00000E+000	-8.40000E-002	4.35076E-004	7	...........	-327.63
	2961	59.24	-8.01166E-002	1.48889E-008	0.00000E+000	-7.80000E-002	4.00910E-004	7	...........	-327.63
	2964	59.3	-7.41491E-002	1.49014E-008	0.00000E+000	-7.20000E-002	4.37576E-004	7	...........	-327.63
	2967	59.36	-6.81370E-002	1.47598E-008	0.00000E+000	-6.60000E-002	4.24243E-004	7	...........	-327.63
	2970	59.42	-6.21632E-002	1.50098E-008	0.00000E+000	-6.00000E-002	4.15076E-004	7	...........	-327.63
	2973	59.48	-5.61520E-002	1.48681E-008	0.00000E+000	-5.40000E-002	4.11743E-004	7	...........	-327.63
	2976	59.54	-5.01774E-002	1.49223E-008	0.00000E+000	-4.80000E-002	4.34243E-004	7	...........	-327.63
	2979	59.6	-4.41637E-002	1.47973E-008	0.00000E+000	-4.20000E-002	4.20076E-004	7	...........	-327.63
	2982	59.66	-3.81816E-002	1.48806E-008	0.00000E+000	-3.60000E-002	4.34243E-004	7	...........	-327.63
	2985	59.72	-3.21778E-002	1.50223E-008	0.00000E+000	-3.00000E-002	4.30076E-004	7	...........	-327.63
	2988	59.78	-2.61862E-002	1.48764E-008	0.00000E+000	-2.40000E-002	4.25076E-004	7	...........	-327.63
	2991	59.84	-2.01966E-002	1.48556E-008	0.00000E+000	-1.80000E-002	4.25076E-004	7	...........	-327.63
	2994	59.9	-1.41970E-002	1.48681E-008	0.00000E+000	-1.20000E-002	4.16743E-004	7	...........	-327.63
	2997	59.96	-8.20824E-003	1.48098E-008	0.00000E+000	-6.00000E-003	4.26743E-004	7	...........	-327.63
	3000	60.02	-2.21908E-003	1.49973E-008	0.00000E+000	0.00000E+000	4.20076E-004	7	...........	-327.63

File: CV_smallGrid_newBuffer_1.DTA
EXPLAIN
TAG	CV
TITLE	LABEL	Cyclic Voltammetry	Test &Identifier
DATE	LABEL	5-12-2022	Date
TIME	LABEL	13:03:32	Time
NOTES	NOTES	1	&Notes...

PSTAT	PSTAT	REF3000-20110	Potentiostat
VINIT	POTEN	0.00000E+000	F	Initial &E (V)
VLIMIT1	POTEN	5.00000E-001	F	Scan Limit &1 (V)
VLIMIT2	POTEN	-5.00000E-001	F	Scan Limit &2 (V)
VFINAL	POTEN	0.00000E+000	F	Final &E (V)
SCANRATE	QUANT	9.99998E+001	&Scan Rate (mV/s)
STEPSIZE	QUANT	2.00000E+000	St&ep Size (mV)
CYCLES	IQUANT	3	C&ycles (#)
IMODE	SELECTOR	0	I/E Range &Mode
IRANGE	QUANT	3.00000E-001	&Max Current (mA)
AREA	QUANT	1.00000E+000	Electrode &Area (cm^2)
ELECTRODETYPE	SELECTOR	0	Electrode Type
STRIPPING	TOGGLE	F	Used for Stripping
CONDIT	TWOPARAM	F	1.50000E+001	0.00000E+000	Conditionin&g	Time(s)	E(V)
DELAY	TWOPARAM	F	3.00000E+001	0.00000E+000	Init. De&lay	Time(s)	Stab.(mV/s)
EQDELAY	QUANT	0.00000E+000	Equil. &Time (s)
IRCOMP	SELECTOR	0	IRCom&p
PFCOR	QUANT	5.00000E+001	PF Corr. (ohm)
SAMPLINGMODE	SELECTOR	1	Sampling &Mode
EOC	QUANT	0	Open Circuit (V)
PSTATMODEL	IQUANT	5	Pstat Model
PSTATSECTION	LABEL	REF3000-20110	Pstat Section
PSTATSERIALNO	LABEL	20110	Pstat Serial Number
CTRLMODE	IQUANT	1	Control Mode
ELECTROMETER	IQUANT	0	RE=0 or CS=1
IESTAB	IQUANT	2	I/E Stability
CASPEED	IQUANT	4	Control Amp Speed
CONVENTION	IQUANT	1	Current Convention
ICHRANGE	IQUANT	2	Ich Range
ICHRANGEMODE	TOGGLE	F	Ich Auto Range
ICHOFFSETENABLE	TOGGLE	F	Ich Offset Enable
ICHOFFSET	QUANT	0	Ich Offset (V)
ICHFILTER	IQUANT	2	Ich Filter
VCHRANGE	IQUANT	2	Vch Range
VCHRANGEMODE	TOGGLE	F	Vch Auto Range
VCHOFFSETENABLE	TOGGLE	F	Vch Offset Enable
VCHOFFSET	QUANT	0	Vch Offset (V)
VCHFILTER	IQUANT	2	Vch Filter
ACHRANGE	IQUANT	2	Ach Range
ACHOFFSETENABLE	TOGGLE	F	Ach Offset Enable
ACHOFFSET	QUANT	0	Ach Offset (V)
ACHFILTER	IQUANT	1	Ach Filter
IERANGELOWERLIMIT	IQUANT	2	I/E Range Lower Limit
IERANGEMODE	TOGGLE	T	I/E AutoRange
IERANGE	IQUANT	9	I/E Range
POSFEEDENABLE	TOGGLE	F	Positive Feedback IR Comp
POSFEEDRESISTANCE	QUANT	0	Positive Feedback Resistance (ohm)
ACHSELECT	IQUANT	4	Ach Select
SENSECABLEID	IQUANT	14	Sense Cable ID
PWRCABLEID	IQUANT	7	Power Cable ID
DCCALDATE	LABEL	8/9/2022	DC Calibration Date
ACCALDATE	LABEL	8/9/2022	AC Calibration Date
THERMOSELECT	IQUANT	1	Thermo Select
FRAMEWORKVERSION	LABEL	7.9.0	Framework Version
INSTRUMENTVERSION	LABEL	4.60	Instrument Version
COMPLIANCEVOLTAGE	IQUANT	0	Compliance Voltage
CURVE1	TABLE
	Pt	T	Vf	Im	Vu	Sig	Ach	IERange	Over	Temp
	#	s	V vs. Ref.	A	V	V	V	#	bits	deg C
	0	0.02	-2.36152E-003	-1.07420E-007	0.00000E+000	0.00000E+000	6.91743E-004	9	...........	-327.63
	8	0.18	1.34393E-002	1.94224E-008	0.00000E+000	1.60000E-002	6.89243E-004	7	...........	-327.63
	16	0.34	2.94647E-002	1.92641E-008	0.00000E+000	3.20000E-002	6.89243E-004	7	...........	-327.63
	24	0.5	4.28963E-002	2.01766E-008	0.00000E+000	4.80000E-002	6.84243E-004	7	...........	-327.63
	32	0.66	6.03855E-002	2.03600E-008	0.00000E+000	6.40000E-002	6.79243E-004	7	...........	-327.63
	40	0.82	7.49805E-002	2.08558E-008	0.00000E+000	8.00000E-002	6.84243E-004	7	...........	-327.63
	48	0.98	9.09209E-002	2.07433E-008	0.00000E+000	9.60000E-002	6.79243E-004	7	...........	-327.63
	56	1.14	1.08374E-001	2.04766E-008	0.00000E+000	1.12000E-001	6.85910E-004	7	...........	-327.63
	64	1.3	1.24361E-001	2.05558E-008	0.00000E+000	1.28000E-001	6.82576E-004	7	...........	-327.63
	72	1.46	1.40941E-001	2.07350E-008	0.00000E+000	1.44000E-001	6.78410E-004	7	...........	-327.63
	80	1.62	1.57419E-001	2.05392E-008	0.00000E+000	1.60000E-001	6.78410E-004	7	...........	-327.63
	88	1.78	1.72890E-001	2.07058E-008	0.00000E+000	1.76000E-001	7.06743E-004	7	...........	-327.63
	96	1.94	1.86786E-001	2.14559E-008	0.00000E+000	1.92000E-001	6.87576E-004	7	...........	-327.63
	104	2.1	2.03293E-001	2.10975E-008	0.00000E+000	2.08000E-001	6.89243E-004	7	...........	-327.63
	112	2.26	2.17753E-001	2.09350E-008	0.00000E+000	2.24000E-001	6.84243E-004	7	...........	-327.63
	120	2.42	2.37201E-001	1.98308E-008	0.00000E+000	2.40000E-001	6.83410E-004	7	..ch.......	-327.63
	128	2.58	2.50737E-001	2.03058E-008	0.00000E+000	2.56000E-001	6.90076E-004	7	...........	-327.63
	136	2.74	2.69573E-001	1.92516E-008	0.00000E+000	2.72000E-001	6.84243E-004	7	...........	-327.63
	144	2.9	2.84241E-001	1.92474E-008	0.00000E+000	2.88000E-001	6.78410E-004	7	...........	-327.63
	152	3.06	3.00420E-001	1.87766E-008	0.00000E+000	3.04000E-001	6.95076E-004	7	...........	-327.63
	160	3.22	3.16082E-001	1.84099E-008	0.00000E+000	3.20000E-001	6.83410E-004	7	...........	-327.63
	168	3.38	3.32892E-001	1.76682E-008	0.00000E+000	3.36000E-001	6.87576E-004	7	...........	-327.63
	176	3.54	3.47052E-001	1.77515E-008	0.00000E+000	3.52000E-001	6.88410E-004	7	...........	-327.63
	184	3.7	3.66033E-001	1.62640E-008	0.00000E+000	3.68000E-001	6.93410E-004	7	...........	-327.63
	192	3.86	3.80394E-001	1.61682E-008	0.00000E+000	3.84000E-001	6.81743E-004	7	...........	-327.63
	200	4.02	3.96545E-001	1.56265E-008	0.00000E+000	4.00000E-001	6.90910E-004	7	...........	-327.63
	208	4.18	4.12700E-001	1.51931E-008	0.00000E+000	4.16000E-001	6.92576E-004	7	...........	-327.63
	216	4.34	4.29490E-001	1.41847E-008	0.00000E+000	4.32000E-001	6.82576E-004	7	...........	-327.63
	224	4.5	4.45320E-001	1.38222E-008	0.00000E+000	4.48000E-001	6.85910E-004	7	...........	-327.63
	232	4.66	4.61523E-001	1.31014E-008	0.00000E+000	4.64000E-001	6.90910E-004	7	...........	-327.63
	240	4.82	4.77959E-001	1.23388E-008	0.00000E+000	4.80000E-001	6.91743E-004	7	...........	-327.63
	248	4.98	4.92310E-001	1.23055E-008	0.00000E+000	4.96000E-001	6.83410E-004	7	...........	-327.63
	256	5.14	4.86490E-001	1.10596E-008	0.00000E+000	4.88000E-001	6.79243E-004	7	...........	-327.63
	264	5.3	4.69391E-001	1.04471E-008	0.00000E+000	4.72000E-001	6.83410E-004	7	...........	-327.63
	272	5.46	4.52257E-001	9.93459E-009	0.00000E+000	4.56000E-001	6.85910E-004	7	...........	-327.63
	280	5.62	4.39493E-001	8.32620E-009	0.00000E+000	4.40000E-001	6.75076E-004	7	...........	-327.63
	288	5.78	4.22234E-001	7.60950E-009	0.00000E+000	4.24000E-001	6.87576E-004	7	...........	-327.63
	296	5.94	4.04999E-001	7.08032E-009	0.00000E+000	4.08000E-001	6.84243E-004	7	...........	-327.63
	304	6.1	3.90422E-001	5.91361E-009	0.00000E+000	3.92000E-001	6.79243E-004	7	...........	-327.63
	312	6.26	3.74088E-001	4.88857E-009	0.00000E+000	3.76000E-001	6.86743E-004	7	...........	-327.63
	320	6.42	3.59060E-001	3.72602E-009	0.00000E+000	3.60000E-001	6.88410E-004	7	...........	-327.63
	328	6.58	3.43090E-001	3.14684E-009	0.00000E+000	3.44000E-001	6.87576E-004	7	...........	-327.63
	336	6.74	3.26633E-001	2.14680E-009	0.00000E+000	3.28000E-001	6.75910E-004	7	...........	-327.63
	344	6.9	3.11500E-001	1.19260E-009	0.00000E+000	3.12000E-001	6.75910E-004	7	...........	-327.63
	352	7.06	2.95791E-001	3.88399E-010	0.00000E+000	2.96000E-001	6.90910E-004	7	...........	-327.63
	360	7.22	2.79819E-001	-3.32461E-010	0.00000E+000	2.80000E-001	6.81743E-004	7	...........	-327.63
	368	7.38	2.63342E-001	-1.01999E-009	0.00000E+000	2.64000E-001	6.80076E-004	7	...........	-327.63
	376	7.54	2.48427E-001	-2.12003E-009	0.00000E+000	2.48000E-001	6.90076E-004	7	...........	-327.63
	384	7.7	2.31565E-001	-2.36587E-009	0.00000E+000	2.32000E-001	6.84243E-004	7	...........	-327.63
	392	7.86	2.15795E-001	-2.98256E-009	0.00000E+000	2.16000E-001	6.82576E-004	7	...........	-327.63
[...]
	2895	57.92	-2.14331E-001	1.99891E-008	0.00000E+000	-2.10000E-001	4.30076E-004	7	...........	-327.63
	2898	57.98	-2.08197E-001	1.97808E-008	0.00000E+000	-2.04000E-001	4.14243E-004	7	...........	-327.63
	2901	58.04	-2.03482E-001	1.99475E-008	0.00000E+000	-1.98000E-001	4.22576E-004	7	...........	-327.63
	2904	58.1	-1.97506E-001	1.98891E-008	0.00000E+000	-1.92000E-001	4.15910E-004	7	...........	-327.63
	2907	58.16	-1.87902E-001	1.90224E-008	0.00000E+000	-1.86000E-001	4.26743E-004	7	...........	-327.63
	2910	58.22	-1.83549E-001	1.93974E-008	0.00000E+000	-1.80000E-001	4.09243E-004	7	...........	-327.63
	2913	58.28	-1.75846E-001	1.91599E-008	0.00000E+000	-1.74000E-001	4.27576E-004	7	...........	-327.63
	2916	58.34	-1.70491E-001	1.90724E-008	0.00000E+000	-1.68000E-001	4.10910E-004	7	...........	-327.63
	2919	58.4	-1.65419E-001	1.90558E-008	0.00000E+000	-1.62000E-001	4.20910E-004	7	...........	-327.63
	2922	58.46	-1.57611E-001	1.85307E-008	0.00000E+000	-1.56000E-001	4.22576E-004	7	...........	-327.63
	2925	58.52	-1.52556E-001	1.85599E-008	0.00000E+000	-1.50000E-001	4.21743E-004	7	...........	-327.63
	2928	58.58	-1.46947E-001	1.85224E-008	0.00000E+000	-1.44000E-001	4.20076E-004	7	...........	-327.63
	2931	58.64	-1.43259E-001	1.86391E-008	0.00000E+000	-1.38000E-001	4.09243E-004	7	...........	-327.63
	2934	58.7	-1.36939E-001	1.86016E-008	0.00000E+000	-1.32000E-001	4.26743E-004	7	...........	-327.63
	2937	58.76	-1.29349E-001	1.83057E-008	0.00000E+000	-1.26000E-001	4.07576E-004	7	...........	-327.63
	2940	58.82	-1.23492E-001	1.80641E-008	0.00000E+000	-1.20000E-001	4.15076E-004	7	...........	-327.63
	2943	58.88	-1.17036E-001	1.75974E-008	0.00000E+000	-1.14000E-001	4.17576E-004	7	...........	-327.63
	2946	58.94	-1.12991E-001	1.78974E-008	0.00000E+000	-1.08000E-001	4.19243E-004	7	...........	-327.63
	2949	59	-1.04535E-001	1.73390E-008	0.00000E+000	-1.02000E-001	4.20910E-004	7	...........	-327.63
	2952	59.06	-9.76382E-002	1.70182E-008	0.00000E+000	-9.60000E-002	4.27576E-004	7	..ch.......	-327.63
	2955	59.12	-9.37212E-002	1.70724E-008	0.00000E+000	-9.00000E-002	4.10910E-004	7	...........	-327.63
	2958	59.18	-8.62153E-002	1.66140E-008	0.00000E+000	-8.40000E-002	4.20076E-004	7	...........	-327.63
	2961	59.24	-8.13007E-002	1.64348E-008	0.00000E+000	-7.80000E-002	4.15910E-004	7	...........	-327.63
	2964	59.3	-7.34699E-002	1.58140E-008	0.00000E+000	-7.20000E-002	4.17576E-004	7	...........	-327.63
	2967	59.36	-7.00628E-002	1.61098E-008	0.00000E+000	-6.60000E-002	4.12576E-004	7	...........	-327.63
	2970	59.42	-6.08378E-002	1.52348E-008	0.00000E+000	-6.00000E-002	4.30076E-004	7	..ch.......	-327.63
	2973	59.48	-5.63607E-002	1.53848E-008	0.00000E+000	-5.40000E-002	4.28410E-004	7	...........	-327.63
	2976	59.54	-5.04487E-002	1.52431E-008	0.00000E+000	-4.80000E-002	4.41743E-004	7	...........	-327.63
	2979	59.6	-4.44353E-002	1.49306E-008	0.00000E+000	-4.20000E-002	4.30076E-004	7	...........	-327.63
	2982	59.66	-3.79774E-002	1.46014E-008	0.00000E+000	-3.60000E-002	4.30076E-004	7	...........	-327.63
	2985	59.72	-3.23978E-002	1.44973E-008	0.00000E+000	-3.00000E-002	4.05076E-004	7	...........	-327.63
	2988	59.78	-2.60357E-002	1.38847E-008	0.00000E+000	-2.40000E-002	4.10910E-004	7	...........	-327.63
	2991	59.84	-2.03570E-002	1.39681E-008	0.00000E+000	-1.80000E-002	4.24243E-004	7	...........	-327.63
	2994	59.9	-1.23757E-002	1.32014E-008	0.00000E+000	-1.20000E-002	4.23410E-004	7	..ch.......	-327.63
	2997	59.96	-8.34908E-003	1.37097E-008	0.00000E+000	-6.00000E-003	4.32576E-004	7	...........	-327.63
	3000	60.02	-2.38491E-003	1.33931E-008	0.00000E+000	0.00000E+000	4.45910E-004	7	...........	-327.63