Folder: iongate/Gamry (part 2)

File: CV_fullWindow_noBuffer.DTA
EXPLAIN
TAG	CV
TITLE	LABEL	Cyclic Voltammetry	Test &Identifier
DATE	LABEL	5-12-2022	Date
TIME	LABEL	13:19:20	Time
NOTES	NOTES	1	&Notes...

PSTAT	PSTAT	REF3000-20110	Potentiostat
VINIT	POTEN	0.00000E+000	F	Initial &E (V)
VLIMIT1	POTEN	5.00000E-001	F	Scan Limit &1 (V)
VLIMIT2	POTEN	-5.00000E-001	F	Scan Limit &2 (V)
VFINAL	POTEN	0.00000E+000	F	Final &E (V)
SCANRATE	QUANT	9.99998E+001	&Scan Rate (mV/s)
STEPSIZE	QUANT	2.00000E+000	St&ep Size (mV)
CYCLES	IQUANT	3	C&ycles (#)
IMODE	SELECTOR	0	I/E Range &Mode
IRANGE	QUANT	3.00000E-001	&Max Current (mA)
AREA	QUANT	1.00000E+000	Electrode &Area (cm^2)
ELECTRODETYPE	SELECTOR	0	Electrode Type
STRIPPING	TOGGLE	F	Used for Stripping
CONDIT	TWOPARAM	F	1.50000E+001	0.00000E+000	Conditionin&g	Time(s)	E(V)
DELAY	TWOPARAM	F	3.00000E+001	0.00000E+000	Init. De&lay	Time(s)	Stab.(mV/s)
EQDELAY	QUANT	0.00000E+000	Equil. &Time (s)
IRCOMP	SELECTOR	0	IRCom&p
PFCOR	QUANT	5.00000E+001	PF Corr. (ohm)
SAMPLINGMODE	SELECTOR	1	Sampling &Mode
EOC	QUANT	0	Open Circuit (V)
PSTATMODEL	IQUANT	5	Pstat Model
PSTATSECTION	LABEL	REF3000-20110	Pstat Section
PSTATSERIALNO	LABEL	20110	Pstat Serial Number
CTRLMODE	IQUANT	1	Control Mode
ELECTROMETER	IQUANT	0	RE=0 or CS=1
IESTAB	IQUANT	2	I/E Stability
CASPEED	IQUANT	4	Control Amp Speed
CONVENTION	IQUANT	1	Current Convention
ICHRANGE	IQUANT	2	Ich Range
ICHRANGEMODE	TOGGLE	F	Ich Auto Range
ICHOFFSETENABLE	TOGGLE	F	Ich Offset Enable
ICHOFFSET	QUANT	0	Ich Offset (V)
ICHFILTER	IQUANT	2	Ich Filter
VCHRANGE	IQUANT	2	Vch Range
VCHRANGEMODE	TOGGLE	F	Vch Auto Range
VCHOFFSETENABLE	TOGGLE	F	Vch Offset Enable
VCHOFFSET	QUANT	0	Vch Offset (V)
VCHFILTER	IQUANT	2	Vch Filter
ACHRANGE	IQUANT	2	Ach Range
ACHOFFSETENABLE	TOGGLE	F	Ach Offset Enable
ACHOFFSET	QUANT	0	Ach Offset (V)
ACHFILTER	IQUANT	1	Ach Filter
IERANGELOWERLIMIT	IQUANT	2	I/E Range Lower Limit
IERANGEMODE	TOGGLE	T	I/E AutoRange
IERANGE	IQUANT	9	I/E Range
POSFEEDENABLE	TOGGLE	F	Positive Feedback IR Comp
POSFEEDRESISTANCE	QUANT	0	Positive Feedback Resistance (ohm)
ACHSELECT	IQUANT	4	Ach Select
SENSECABLEID	IQUANT	14	Sense Cable ID
PWRCABLEID	IQUANT	7	Power Cable ID
DCCALDATE	LABEL	8/9/2022	DC Calibration Date
ACCALDATE	LABEL	8/9/2022	AC Calibration Date
THERMOSELECT	IQUANT	1	Thermo Select
FRAMEWORKVERSION	LABEL	7.9.0	Framework Version
INSTRUMENTVERSION	LABEL	4.60	Instrument Version
COMPLIANCEVOLTAGE	IQUANT	0	Compliance Voltage
CURVE1	TABLE
	Pt	T	Vf	Im	Vu	Sig	Ach	IERange	Over	Temp
	#	s	V vs. Ref.	A	V	V	V	#	bits	deg C
	0	0.02	3.73681E-003	-9.90594E-008	0.00000E+000	0.00000E+000	7.50910E-004	9	...........	-327.63
	8	0.18	1.95655E-002	-9.75781E-009	0.00000E+000	1.60000E-002	7.39243E-004	7	...........	-327.63
	16	0.34	3.53384E-002	-9.62864E-009	0.00000E+000	3.20000E-002	7.35910E-004	7	...........	-327.63
	24	0.5	5.13980E-002	-9.90365E-009	0.00000E+000	4.80000E-002	7.21743E-004	7	...........	-327.63
	32	0.66	6.73713E-002	-1.00703E-008	0.00000E+000	6.40000E-002	7.61743E-004	7	...........	-327.63
	40	0.82	8.30701E-002	-1.01162E-008	0.00000E+000	8.00000E-002	7.46743E-004	7	...........	-327.63
	48	0.98	9.83763E-002	-9.81615E-009	0.00000E+000	9.60000E-002	7.16743E-004	7	...........	-327.63
	56	1.14	1.13970E-001	-9.81198E-009	0.00000E+000	1.12000E-001	7.44243E-004	7	...........	-327.63
	64	1.3	1.29234E-001	-9.73698E-009	0.00000E+000	1.28000E-001	7.18410E-004	7	...........	-327.63
	72	1.46	1.45165E-001	-9.53697E-009	0.00000E+000	1.44000E-001	7.69243E-004	7	...........	-327.63
	80	1.62	1.61139E-001	-9.32863E-009	0.00000E+000	1.60000E-001	7.35910E-004	7	...........	-327.63
	88	1.78	1.77113E-001	-8.96195E-009	0.00000E+000	1.76000E-001	7.53410E-004	7	...........	-327.63
	96	1.94	1.93037E-001	-8.94528E-009	0.00000E+000	1.92000E-001	7.42576E-004	7	...........	-327.63
	104	2.1	2.08911E-001	-8.79528E-009	0.00000E+000	2.08000E-001	7.25910E-004	7	...........	-327.63
	112	2.26	2.24792E-001	-8.50360E-009	0.00000E+000	2.24000E-001	7.41743E-004	7	...........	-327.63
	120	2.42	2.40728E-001	-8.29109E-009	0.00000E+000	2.40000E-001	7.35910E-004	7	...........	-327.63
	128	2.58	2.56624E-001	-8.07025E-009	0.00000E+000	2.56000E-001	7.31743E-004	7	...........	-327.63
	136	2.74	2.72534E-001	-7.54106E-009	0.00000E+000	2.72000E-001	7.76743E-004	7	...........	-327.63
	144	2.9	2.88430E-001	-7.07021E-009	0.00000E+000	2.88000E-001	7.52576E-004	7	...........	-327.63
	152	3.06	3.04411E-001	-6.56186E-009	0.00000E+000	3.04000E-001	7.65910E-004	7	...........	-327.63
	160	3.22	3.20256E-001	-6.15351E-009	0.00000E+000	3.20000E-001	7.40076E-004	7	...........	-327.63
	168	3.38	3.36147E-001	-5.47432E-009	0.00000E+000	3.36000E-001	7.47576E-004	7	...........	-327.63
	176	3.54	3.52048E-001	-4.46178E-009	0.00000E+000	3.52000E-001	7.42576E-004	7	...........	-327.63
	184	3.7	3.67910E-001	-3.82426E-009	0.00000E+000	3.68000E-001	7.33410E-004	7	...........	-327.63
	192	3.86	3.83800E-001	-3.14507E-009	0.00000E+000	3.84000E-001	7.37576E-004	7	...........	-327.63
	200	4.02	3.99710E-001	-2.41587E-009	0.00000E+000	4.00000E-001	7.52576E-004	7	...........	-327.63
	208	4.18	4.15566E-001	-1.96169E-009	0.00000E+000	4.16000E-001	7.46743E-004	7	...........	-327.63
	216	4.34	4.31487E-001	-1.51584E-009	0.00000E+000	4.32000E-001	7.38410E-004	7	...........	-327.63
	224	4.5	4.47377E-001	-7.78311E-010	0.00000E+000	4.48000E-001	7.35910E-004	7	...........	-327.63
	232	4.66	4.63281E-001	-1.44954E-010	0.00000E+000	4.64000E-001	7.58410E-004	7	...........	-327.63
	240	4.82	4.79179E-001	7.80081E-010	0.00000E+000	4.80000E-001	7.30076E-004	7	...........	-327.63
	248	4.98	4.95072E-001	1.45511E-009	0.00000E+000	4.96000E-001	7.50910E-004	7	...........	-327.63
	256	5.14	4.86991E-001	2.63432E-009	0.00000E+000	4.88000E-001	7.45910E-004	7	...........	-327.63
	264	5.3	4.70916E-001	3.36768E-009	0.00000E+000	4.72000E-001	7.40076E-004	7	...........	-327.63
	272	5.46	4.54848E-001	4.19687E-009	0.00000E+000	4.56000E-001	7.47576E-004	7	...........	-327.63
	280	5.62	4.38763E-001	4.78856E-009	0.00000E+000	4.40000E-001	7.31743E-004	7	...........	-327.63
	288	5.78	4.22678E-001	5.53442E-009	0.00000E+000	4.24000E-001	7.44243E-004	7	...........	-327.63
	296	5.94	4.06632E-001	6.39696E-009	0.00000E+000	4.08000E-001	7.56743E-004	7	...........	-327.63
	304	6.1	3.90552E-001	7.46783E-009	0.00000E+000	3.92000E-001	7.52576E-004	7	...........	-327.63
	312	6.26	3.74468E-001	8.31786E-009	0.00000E+000	3.76000E-001	7.51743E-004	7	...........	-327.63
	320	6.42	3.58370E-001	9.26373E-009	0.00000E+000	3.60000E-001	7.48410E-004	7	...........	-327.63
	328	6.58	3.42283E-001	1.01721E-008	0.00000E+000	3.44000E-001	7.54243E-004	7	...........	-327.63
	336	6.74	3.26220E-001	1.09388E-008	0.00000E+000	3.28000E-001	7.25910E-004	7	...........	-327.63
	344	6.9	3.10140E-001	1.19472E-008	0.00000E+000	3.12000E-001	7.44243E-004	7	...........	-327.63
	352	7.06	2.94103E-001	1.25597E-008	0.00000E+000	2.96000E-001	7.50076E-004	7	...........	-327.63
	360	7.22	2.78090E-001	1.31722E-008	0.00000E+000	2.80000E-001	7.51743E-004	7	...........	-327.63
	368	7.38	2.62040E-001	1.38139E-008	0.00000E+000	2.64000E-001	7.41743E-004	7	...........	-327.63
	376	7.54	2.46025E-001	1.44639E-008	0.00000E+000	2.48000E-001	7.35076E-004	7	...........	-327.63
	384	7.7	2.30014E-001	1.50848E-008	0.00000E+000	2.32000E-001	7.45910E-004	7	...........	-327.63
	392	7.86	2.14020E-001	1.56056E-008	0.00000E+000	2.16000E-001	7.55076E-004	7	...........	-327.63
[...]
	2895	57.92	-2.07364E-001	-5.69970E-010	0.00000E+000	-2.10000E-001	4.75910E-004	7	...........	-327.63
	2898	57.98	-2.01413E-001	-5.24135E-010	0.00000E+000	-2.04000E-001	4.71743E-004	7	...........	-327.63
	2901	58.04	-1.95429E-001	-4.28298E-010	0.00000E+000	-1.98000E-001	4.60910E-004	7	...........	-327.63
	2904	58.1	-1.89450E-001	-3.32461E-010	0.00000E+000	-1.92000E-001	4.78410E-004	7	...........	-327.63
	2907	58.16	-1.83462E-001	-9.91187E-011	0.00000E+000	-1.86000E-001	4.41743E-004	7	...........	-327.63
	2910	58.22	-1.77498E-001	1.30057E-010	0.00000E+000	-1.80000E-001	4.50076E-004	7	...........	-327.63
	2913	58.28	-1.71495E-001	2.67562E-010	0.00000E+000	-1.74000E-001	4.55076E-004	7	...........	-327.63
	2916	58.34	-1.65519E-001	1.92559E-010	0.00000E+000	-1.68000E-001	4.70910E-004	7	...........	-327.63
	2919	58.4	-1.59536E-001	4.30068E-010	0.00000E+000	-1.62000E-001	4.57576E-004	7	...........	-327.63
	2922	58.46	-1.53581E-001	7.46746E-010	0.00000E+000	-1.56000E-001	4.48410E-004	7	...........	-327.63
	2925	58.52	-1.47614E-001	6.92577E-010	0.00000E+000	-1.50000E-001	4.48410E-004	7	...........	-327.63
	2928	58.58	-1.41638E-001	7.09245E-010	0.00000E+000	-1.44000E-001	4.45076E-004	7	...........	-327.63
	2931	58.64	-1.35654E-001	8.88418E-010	0.00000E+000	-1.38000E-001	4.47576E-004	7	...........	-327.63
	2934	58.7	-1.29668E-001	8.59250E-010	0.00000E+000	-1.32000E-001	4.50076E-004	7	...........	-327.63
	2937	58.76	-1.23699E-001	9.96756E-010	0.00000E+000	-1.26000E-001	4.60076E-004	7	...........	-327.63
	2940	58.82	-1.17717E-001	9.21753E-010	0.00000E+000	-1.20000E-001	4.60076E-004	7	...........	-327.63
	2943	58.88	-1.11737E-001	1.18426E-009	0.00000E+000	-1.14000E-001	4.65910E-004	7	...........	-327.63
	2946	58.94	-1.05747E-001	1.44677E-009	0.00000E+000	-1.08000E-001	4.54243E-004	7	...........	-327.63
	2949	59	-9.97845E-002	1.36344E-009	0.00000E+000	-1.02000E-001	4.53410E-004	7	...........	-327.63
	2952	59.06	-9.38182E-002	1.43844E-009	0.00000E+000	-9.60000E-002	4.27576E-004	7	...........	-327.63
	2955	59.12	-8.78420E-002	1.52178E-009	0.00000E+000	-9.00000E-002	4.42576E-004	7	...........	-327.63
	2958	59.18	-8.18449E-002	1.70512E-009	0.00000E+000	-8.40000E-002	4.55076E-004	7	...........	-327.63
	2961	59.24	-7.58366E-002	1.75512E-009	0.00000E+000	-7.80000E-002	4.60910E-004	7	...........	-327.63
	2964	59.3	-6.98532E-002	1.99679E-009	0.00000E+000	-7.20000E-002	4.58410E-004	7	...........	-327.63
	2967	59.36	-6.38824E-002	2.10096E-009	0.00000E+000	-6.60000E-002	4.56743E-004	7	...........	-327.63
	2970	59.42	-5.78987E-002	2.32597E-009	0.00000E+000	-6.00000E-002	4.46743E-004	7	...........	-327.63
	2973	59.48	-5.19220E-002	2.49264E-009	0.00000E+000	-5.40000E-002	4.61743E-004	7	...........	-327.63
	2976	59.54	-4.59699E-002	2.40514E-009	0.00000E+000	-4.80000E-002	4.59243E-004	7	...........	-327.63
	2979	59.6	-3.99982E-002	2.78016E-009	0.00000E+000	-4.20000E-002	4.35910E-004	7	...........	-327.63
	2982	59.66	-3.40303E-002	2.88016E-009	0.00000E+000	-3.60000E-002	4.35910E-004	7	...........	-327.63
	2985	59.72	-2.80591E-002	2.88433E-009	0.00000E+000	-3.00000E-002	4.65076E-004	7	...........	-327.63
	2988	59.78	-2.20853E-002	3.01350E-009	0.00000E+000	-2.40000E-002	4.46743E-004	7	...........	-327.63
	2991	59.84	-1.61053E-002	3.30934E-009	0.00000E+000	-1.80000E-002	4.57576E-004	7	...........	-327.63
	2994	59.9	-1.01345E-002	3.46351E-009	0.00000E+000	-1.20000E-002	4.70910E-004	7	...........	-327.63
	2997	59.96	-4.16366E-003	3.63435E-009	0.00000E+000	-6.00000E-003	4.60910E-004	7	...........	-327.63
	3000	60.02	1.82634E-003	3.85936E-009	0.00000E+000	0.00000E+000	4.57576E-004	7	...........	-327.63

File: CV_fullWindow_noBuffer_2.DTA
EXPLAIN
TAG	CV
TITLE	LABEL	Cyclic Voltammetry	Test &Identifier
DATE	LABEL	5-12-2022	Date
TIME	LABEL	13:22:38	Time
NOTES	NOTES	1	&Notes...

PSTAT	PSTAT	REF3000-20110	Potentiostat
VINIT	POTEN	0.00000E+000	F	Initial &E (V)
VLIMIT1	POTEN	5.00000E-001	F	Scan Limit &1 (V)
VLIMIT2	POTEN	-5.00000E-001	F	Scan Limit &2 (V)
VFINAL	POTEN	0.00000E+000	F	Final &E (V)
SCANRATE	QUANT	9.99998E+001	&Scan Rate (mV/s)
STEPSIZE	QUANT	2.00000E+000	St&ep Size (mV)
CYCLES	IQUANT	3	C&ycles (#)
IMODE	SELECTOR	0	I/E Range &Mode
IRANGE	QUANT	3.00000E-001	&Max Current (mA)
AREA	QUANT	1.00000E+000	Electrode &Area (cm^2)
ELECTRODETYPE	SELECTOR	0	Electrode Type
STRIPPING	TOGGLE	F	Used for Stripping
CONDIT	TWOPARAM	F	1.50000E+001	0.00000E+000	Conditionin&g	Time(s)	E(V)
DELAY	TWOPARAM	F	3.00000E+001	0.00000E+000	Init. De&lay	Time(s)	Stab.(mV/s)
EQDELAY	QUANT	0.00000E+000	Equil. &Time (s)
IRCOMP	SELECTOR	0	IRCom&p
PFCOR	QUANT	5.00000E+001	PF Corr. (ohm)
SAMPLINGMODE	SELECTOR	1	Sampling &Mode
EOC	QUANT	0	Open Circuit (V)
PSTATMODEL	IQUANT	5	Pstat Model
PSTATSECTION	LABEL	REF3000-20110	Pstat Section
PSTATSERIALNO	LABEL	20110	Pstat Serial Number
CTRLMODE	IQUANT	1	Control Mode
ELECTROMETER	IQUANT	0	RE=0 or CS=1
IESTAB	IQUANT	2	I/E Stability
CASPEED	IQUANT	4	Control Amp Speed
CONVENTION	IQUANT	1	Current Convention
ICHRANGE	IQUANT	2	Ich Range
ICHRANGEMODE	TOGGLE	F	Ich Auto Range
ICHOFFSETENABLE	TOGGLE	F	Ich Offset Enable
ICHOFFSET	QUANT	0	Ich Offset (V)
ICHFILTER	IQUANT	2	Ich Filter
VCHRANGE	IQUANT	2	Vch Range
VCHRANGEMODE	TOGGLE	F	Vch Auto Range
VCHOFFSETENABLE	TOGGLE	F	Vch Offset Enable
VCHOFFSET	QUANT	0	Vch Offset (V)
VCHFILTER	IQUANT	2	Vch Filter
ACHRANGE	IQUANT	2	Ach Range
ACHOFFSETENABLE	TOGGLE	F	Ach Offset Enable
ACHOFFSET	QUANT	0	Ach Offset (V)
ACHFILTER	IQUANT	1	Ach Filter
IERANGELOWERLIMIT	IQUANT	2	I/E Range Lower Limit
IERANGEMODE	TOGGLE	T	I/E AutoRange
IERANGE	IQUANT	9	I/E Range
POSFEEDENABLE	TOGGLE	F	Positive Feedback IR Comp
POSFEEDRESISTANCE	QUANT	0	Positive Feedback Resistance (ohm)
ACHSELECT	IQUANT	4	Ach Select
SENSECABLEID	IQUANT	14	Sense Cable ID
PWRCABLEID	IQUANT	7	Power Cable ID
DCCALDATE	LABEL	8/9/2022	DC Calibration Date
ACCALDATE	LABEL	8/9/2022	AC Calibration Date
THERMOSELECT	IQUANT	1	Thermo Select
FRAMEWORKVERSION	LABEL	7.9.0	Framework Version
INSTRUMENTVERSION	LABEL	4.60	Instrument Version
COMPLIANCEVOLTAGE	IQUANT	0	Compliance Voltage
CURVE1	TABLE
	Pt	T	Vf	Im	Vu	Sig	Ach	IERange	Over	Temp
	#	s	V vs. Ref.	A	V	V	V	#	bits	deg C
	0	0.02	5.17140E-003	-5.76767E-008	0.00000E+000	0.00000E+000	7.38410E-004	9	...........	-327.63
	8	0.18	2.13680E-002	-3.20757E-009	0.00000E+000	1.60000E-002	7.44243E-004	7	...........	-327.63
	16	0.34	3.73876E-002	-3.44508E-009	0.00000E+000	3.20000E-002	7.55076E-004	7	...........	-327.63
	24	0.5	5.33734E-002	-3.26174E-009	0.00000E+000	4.80000E-002	7.26743E-004	7	...........	-327.63
	32	0.66	6.86493E-002	-2.84922E-009	0.00000E+000	6.40000E-002	7.25910E-004	7	...........	-327.63
	40	0.82	8.44680E-002	-3.21173E-009	0.00000E+000	8.00000E-002	7.27576E-004	7	...........	-327.63
	48	0.98	1.01424E-001	-3.39924E-009	0.00000E+000	9.60000E-002	7.38410E-004	7	...........	-327.63
	56	1.14	1.17433E-001	-3.74509E-009	0.00000E+000	1.12000E-001	7.29243E-004	7	...........	-327.63
	64	1.3	1.33435E-001	-3.84092E-009	0.00000E+000	1.28000E-001	7.45910E-004	7	...........	-327.63
	72	1.46	1.49458E-001	-4.29511E-009	0.00000E+000	1.44000E-001	7.35910E-004	7	...........	-327.63
	80	1.62	1.65455E-001	-4.61179E-009	0.00000E+000	1.60000E-001	7.33410E-004	7	...........	-327.63
	88	1.78	1.81475E-001	-4.41595E-009	0.00000E+000	1.76000E-001	7.25910E-004	7	...........	-327.63
	96	1.94	1.97467E-001	-4.74096E-009	0.00000E+000	1.92000E-001	7.35910E-004	7	...........	-327.63
	104	2.1	2.13513E-001	-4.82429E-009	0.00000E+000	2.08000E-001	7.29243E-004	7	...........	-327.63
	112	2.26	2.29538E-001	-5.10764E-009	0.00000E+000	2.24000E-001	7.15076E-004	7	...........	-327.63
	120	2.42	2.45554E-001	-5.38265E-009	0.00000E+000	2.40000E-001	7.38410E-004	7	...........	-327.63
	128	2.58	2.61559E-001	-5.58266E-009	0.00000E+000	2.56000E-001	7.31743E-004	7	...........	-327.63
	136	2.74	2.77548E-001	-5.92434E-009	0.00000E+000	2.72000E-001	7.26743E-004	7	...........	-327.63
	144	2.9	2.93532E-001	-6.38269E-009	0.00000E+000	2.88000E-001	7.34243E-004	7	...........	-327.63
	152	3.06	3.09601E-001	-6.66186E-009	0.00000E+000	3.04000E-001	7.17576E-004	7	...........	-327.63
	160	3.22	3.25618E-001	-6.93271E-009	0.00000E+000	3.20000E-001	7.40910E-004	7	...........	-327.63
	168	3.38	3.41677E-001	-7.21188E-009	0.00000E+000	3.36000E-001	7.30910E-004	7	...........	-327.63
	176	3.54	3.57630E-001	-7.50773E-009	0.00000E+000	3.52000E-001	7.40076E-004	7	...........	-327.63
	184	3.7	3.73618E-001	-7.37439E-009	0.00000E+000	3.68000E-001	7.35910E-004	7	...........	-327.63
	192	3.86	3.89483E-001	-7.65773E-009	0.00000E+000	3.84000E-001	7.37576E-004	7	...........	-327.63
	200	4.02	4.05448E-001	-7.54940E-009	0.00000E+000	4.00000E-001	7.36743E-004	7	...........	-327.63
	208	4.18	4.21527E-001	-7.85774E-009	0.00000E+000	4.16000E-001	7.48410E-004	7	...........	-327.63
	216	4.34	4.37436E-001	-7.86191E-009	0.00000E+000	4.32000E-001	7.20076E-004	7	...........	-327.63
	224	4.5	4.53334E-001	-8.02441E-009	0.00000E+000	4.48000E-001	7.48410E-004	7	...........	-327.63
	232	4.66	4.69246E-001	-7.94941E-009	0.00000E+000	4.64000E-001	7.36743E-004	7	...........	-327.63
	240	4.82	4.85143E-001	-7.87441E-009	0.00000E+000	4.80000E-001	7.30910E-004	7	...........	-327.63
	248	4.98	5.00840E-001	-8.18692E-009	0.00000E+000	4.96000E-001	7.39243E-004	7	...........	-327.63
	256	5.14	4.93008E-001	-7.95358E-009	0.00000E+000	4.88000E-001	7.39243E-004	7	...........	-327.63
	264	5.3	4.76961E-001	-8.03691E-009	0.00000E+000	4.72000E-001	7.49243E-004	7	...........	-327.63
	272	5.46	4.60675E-001	-8.41610E-009	0.00000E+000	4.56000E-001	7.40910E-004	7	...........	-327.63
	280	5.62	4.45286E-001	-8.44110E-009	0.00000E+000	4.40000E-001	7.33410E-004	7	...........	-327.63
	288	5.78	4.29006E-001	-8.29526E-009	0.00000E+000	4.24000E-001	7.23410E-004	7	...........	-327.63
	296	5.94	4.12526E-001	-8.60360E-009	0.00000E+000	4.08000E-001	7.35076E-004	7	...........	-327.63
	304	6.1	3.96628E-001	-8.72027E-009	0.00000E+000	3.92000E-001	7.30076E-004	7	...........	-327.63
	312	6.26	3.80500E-001	-8.69527E-009	0.00000E+000	3.76000E-001	7.26743E-004	7	...........	-327.63
	320	6.42	3.64423E-001	-8.67027E-009	0.00000E+000	3.60000E-001	7.24243E-004	7	...........	-327.63
	328	6.58	3.48425E-001	-8.64110E-009	0.00000E+000	3.44000E-001	7.30910E-004	7	...........	-327.63
	336	6.74	3.32524E-001	-8.76194E-009	0.00000E+000	3.28000E-001	7.43410E-004	7	...........	-327.63
	344	6.9	3.16393E-001	-8.91195E-009	0.00000E+000	3.12000E-001	7.32576E-004	7	...........	-327.63
	352	7.06	3.00216E-001	-8.99112E-009	0.00000E+000	2.96000E-001	7.47576E-004	7	...........	-327.63
	360	7.22	2.84120E-001	-9.17862E-009	0.00000E+000	2.80000E-001	7.28410E-004	7	...........	-327.63
	368	7.38	2.68329E-001	-9.24946E-009	0.00000E+000	2.64000E-001	7.41743E-004	7	...........	-327.63
	376	7.54	2.52343E-001	-9.27029E-009	0.00000E+000	2.48000E-001	7.19243E-004	7	...........	-327.63
	384	7.7	2.36290E-001	-9.49530E-009	0.00000E+000	2.32000E-001	7.40076E-004	7	...........	-327.63
	392	7.86	2.20226E-001	-9.24946E-009	0.00000E+000	2.16000E-001	7.37576E-004	7	...........	-327.63
[...]
	2895	57.92	-2.14276E-001	2.06475E-008	0.00000E+000	-2.10000E-001	4.50910E-004	7	...........	-327.63
	2898	57.98	-2.08279E-001	2.08225E-008	0.00000E+000	-2.04000E-001	4.35076E-004	7	...........	-327.63
	2901	58.04	-2.02322E-001	2.06225E-008	0.00000E+000	-1.98000E-001	4.34243E-004	7	...........	-327.63
	2904	58.1	-1.96349E-001	2.08058E-008	0.00000E+000	-1.92000E-001	4.44243E-004	7	...........	-327.63
	2907	58.16	-1.90347E-001	2.08975E-008	0.00000E+000	-1.86000E-001	4.39243E-004	7	...........	-327.63
	2910	58.22	-1.84355E-001	2.07933E-008	0.00000E+000	-1.80000E-001	4.17576E-004	7	...........	-327.63
	2913	58.28	-1.78413E-001	2.08850E-008	0.00000E+000	-1.74000E-001	4.52576E-004	7	...........	-327.63
	2916	58.34	-1.72430E-001	2.09058E-008	0.00000E+000	-1.68000E-001	4.33410E-004	7	...........	-327.63
	2919	58.4	-1.66437E-001	2.07642E-008	0.00000E+000	-1.62000E-001	4.55076E-004	7	...........	-327.63
	2922	58.46	-1.60439E-001	2.10100E-008	0.00000E+000	-1.56000E-001	4.50910E-004	7	...........	-327.63
	2925	58.52	-1.54452E-001	2.10642E-008	0.00000E+000	-1.50000E-001	4.34243E-004	7	...........	-327.63
	2928	58.58	-1.48493E-001	2.10017E-008	0.00000E+000	-1.44000E-001	4.29243E-004	7	...........	-327.63
	2931	58.64	-1.42509E-001	2.11267E-008	0.00000E+000	-1.38000E-001	4.50910E-004	7	...........	-327.63
	2934	58.7	-1.36511E-001	2.11267E-008	0.00000E+000	-1.32000E-001	4.50076E-004	7	...........	-327.63
	2937	58.76	-1.30518E-001	2.10558E-008	0.00000E+000	-1.26000E-001	4.28410E-004	7	...........	-327.63
	2940	58.82	-1.24532E-001	2.11558E-008	0.00000E+000	-1.20000E-001	4.45076E-004	7	...........	-327.63
	2943	58.88	-1.18566E-001	2.14559E-008	0.00000E+000	-1.14000E-001	4.30076E-004	7	...........	-327.63
	2946	58.94	-1.12583E-001	2.10850E-008	0.00000E+000	-1.08000E-001	4.55076E-004	7	...........	-327.63
	2949	59	-1.06596E-001	2.12392E-008	0.00000E+000	-1.02000E-001	4.40910E-004	7	...........	-327.63
	2952	59.06	-1.00620E-001	2.09475E-008	0.00000E+000	-9.60000E-002	4.43410E-004	7	...........	-327.63
	2955	59.12	-9.46420E-002	2.10808E-008	0.00000E+000	-9.00000E-002	4.35076E-004	7	...........	-327.63
	2958	59.18	-8.86562E-002	2.10433E-008	0.00000E+000	-8.40000E-002	4.19243E-004	7	...........	-327.63
	2961	59.24	-8.26562E-002	2.10350E-008	0.00000E+000	-7.80000E-002	4.35076E-004	7	...........	-327.63
	2964	59.3	-7.66795E-002	2.11225E-008	0.00000E+000	-7.20000E-002	4.55910E-004	7	...........	-327.63
	2967	59.36	-7.07041E-002	2.11517E-008	0.00000E+000	-6.60000E-002	4.47576E-004	7	...........	-327.63
	2970	59.42	-6.47141E-002	2.11392E-008	0.00000E+000	-6.00000E-002	4.41743E-004	7	...........	-327.63
	2973	59.48	-5.87212E-002	2.13767E-008	0.00000E+000	-5.40000E-002	4.75910E-004	7	...........	-327.63
	2976	59.54	-5.27303E-002	2.14100E-008	0.00000E+000	-4.80000E-002	4.39243E-004	7	...........	-327.63
	2979	59.6	-4.67582E-002	2.13517E-008	0.00000E+000	-4.20000E-002	4.29243E-004	7	...........	-327.63
	2982	59.66	-4.07703E-002	2.15392E-008	0.00000E+000	-3.60000E-002	4.45076E-004	7	...........	-327.63
	2985	59.72	-3.48045E-002	2.15475E-008	0.00000E+000	-3.00000E-002	4.60076E-004	7	...........	-327.63
	2988	59.78	-2.87907E-002	2.15767E-008	0.00000E+000	-2.40000E-002	4.43410E-004	7	...........	-327.63
	2991	59.84	-2.28187E-002	2.15059E-008	0.00000E+000	-1.80000E-002	4.37576E-004	7	...........	-327.63
	2994	59.9	-1.68312E-002	2.15059E-008	0.00000E+000	-1.20000E-002	4.44243E-004	7	...........	-327.63
	2997	59.96	-1.08491E-002	2.15434E-008	0.00000E+000	-6.00000E-003	4.50910E-004	7	...........	-327.63
	3000	60.02	-4.86449E-003	2.16142E-008	0.00000E+000	0.00000E+000	4.48410E-004	7	...........	-327.63